sampleType,timestamp,distance,power,accelX,accelY,accelZ,boatAccelX,boatAccelY,boatAccelZ,gyroX,gyroY,gyroZ,latitude,longitude,speed,gpsHeading,gpsAltitude,gpsAccuracy,spm,strokeCount,driveTime,recoveryTime,driveRatio,catchDuration,gravityX,gravityY,gravityZ,detectorMode,detectorAboveThreshold,detectorForcedStroke,detectorResumingFromGap,detectorRejectionReason,detectorPeakProminence,detectorTimeAboveThresholdMs,detectorTimeSinceLastStrokeMs,detectorSmoothedMagnitude,detectorGravityAlpha,detectorGravityShiftG,detectorConfidence
sensor,1768474754821,18.574867616723406,0,-0.14612023532390594,0.8467724323272705,0.5249499082565308,-0.14612023532390594,0.8467724323272705,0.5249499082565308,0,0,0,9.9998568,9.9997573,0.5434489162836083,89,990.4,1.5,,0,0.126,1.0379999999999998,0.1082474226804124,0,-0.1547832957922437,0.863181240543703,0.4933266314458058,classic,0,0,0,none,0,0,0,0.3561270824350514,-0.1547832957922437,0.03684934237532028,0
sensor,1768474759768,22.01236344064786,0,-0.11716539412736893,0.8526917695999146,0.5038418173789978,-0.11716539412736893,0.8526917695999146,0.5038418173789978,0,0,0,9.9998618,9.9997882,0.6292315470972388,96,989.9,1.5,,0,0.208,0.9179999999999999,0.1847246891651865,0,-0.15424385371972146,0.8620631320939717,0.4949542455314572,classic,0,0,0,none,0,0,0,0.5336999068092758,-0.15424385371972146,0.03946081812185637,0
sensor,1768474763765,25.243587110919353,0,-0.107574962079525,0.893470287322998,0.5093482732772827,-0.107574962079525,0.893470287322998,0.5093482732772827,0,0,0,9.9998651,9.9998176,0.6888780850828552,86,989.6,1.465999960899353,,0,0,1.105,0,0.057,-0.14990061719523246,0.8629639004862985,0.49541037221119066,classic,0,0,0,none,0,0,0,0.2558611793181137,-0.14990061719523246,0.05427476078039021,0
sensor,1768474768742,28.45946726748409,0,-0.1483687162399292,0.9109073877334595,0.5245369672775269,-0.1483687162399292,0.9109073877334595,0.5245369672775269,0,0,0,9.9998634,9.9998469,0.726428152638474,84,989.6,1.4160000085830688,,0,0.202,0.46699999999999997,0.30194319880418535,0.495,-0.1557707436959879,0.864037260922128,0.4920039561278379,classic,0,0,0,none,0,0,0,0.6165213389029062,-0.1557707436959879,0.05782166967006033,0
sensor,1768474772732,31.967626121291605,0,-0.17539629340171814,0.8552309274673462,0.45458948612213135,-0.17539629340171814,0.8552309274673462,0.45458948612213135,0,0,0,9.9998718,9.9998778,0.7577370668362876,66,990,1.4830000400543213,,0,0.175,0.96,0.1541850220264317,0,-0.1632320306293877,0.8647145993630321,0.48998507485527626,classic,0,0,0,none,0,0,0,0.7421925451296929,-0.1632320306293877,0.0388043444766059,0
sensor,1768474775750,35.434339923040355,0,-0.15581774711608887,0.8520799875259399,0.45336583256721497,-0.15581774711608887,0.8520799875259399,0.45336583256721497,0,0,0,9.9998868,9.9999055,0.7921332145993878,58,989.7,1.5,,0,0.233,0.9309999999999999,0.20017182130584193,0,-0.1662167773751922,0.8629546257572884,0.48943112226671254,classic,0,0,0,none,0,0,0,0.41302960273028705,-0.1662167773751922,0.03927453419504306,0
sensor,1768474778754,38.51385462362067,0,-0.1963973492383957,0.865739107131958,0.4912993013858795,-0.1963973492383957,0.865739107131958,0.4912993013858795,0,0,0,9.9999051,9.9999266,0.8298035188253339,49,989.9,1.4500000476837158,,0,0,1.0259999999999998,0,0.11,-0.16810764938946918,0.8640014736913304,0.48217402484976324,classic,0,0,0,none,0,0,0,1.0992813879833128,-0.16810764938946918,0.02992540846577662,0
sensor,1768474781724,41.72913339856367,0,-0.1539822518825531,0.8221920728683472,0.3578133285045624,-0.1539822518825531,0.8221920728683472,0.3578133285045624,0,0,0,9.9999251,9.9999478,0.867722579055912,43,989.2,1.4160000085830688,,0,0.232,0.8140000000000001,0.22179732313575526,0.117,-0.16749825685020409,0.8670570945997036,0.4788327162279719,classic,0,0,0,none,0,0,0,0.6669030236115214,-0.16749825685020409,0.13042595134718446,0
sensor,1768474785727,45.463359520292784,0,-0.20384638011455536,0.8252512812614441,0.4930277168750763,-0.20384638011455536,0.8252512812614441,0.4930277168750763,0,0,0,9.9999501,9.9999706,0.9011030895449467,35,988.2,1.4830000400543213,,0,0.236,0.9199999999999999,0.2041522491349481,0,-0.16690523200340598,0.8676414681523293,0.4847894191028056,classic,0,0,0,none,0,0,0,1.0041020198777242,-0.16690523200340598,0.05711378302217793,0
sensor,1768474788720,48.76041764853194,0,-0.20537593960762024,0.8245475888252258,0.513218104839325,-0.20537593960762024,0.8245475888252258,0.513218104839325,0,0,0,9.9999768,9.9999837,0.9299753437999674,25,987.8000000000001,1.5160000324249268,,0,0,0.9510000000000001,0,0.173,-0.16330572016142406,0.8672878910012339,0.485655364648731,classic,0,0,0,none,0,0,0,0.7313847881065905,-0.16330572016142406,0.06633425791435323,0
sensor,1768474790747,51.80820442472756,0,-0.12553216516971588,0.9001086354255676,0.3213176727294922,-0.12553216516971588,0.9001086354255676,0.3213176727294922,0,0,0,10.0000001,9.9999983,0.9680074187276684,22,987.3000000000001,1.5499999523162842,,0,0.583,0.583,0.5,0,-0.1647900855382411,0.8642173537297483,0.491640570667928,classic,0,0,0,none,0,0,0,0.9390758477923088,-0.1647900855382411,0.1793322461784496,0
sensor,1768474792728,55.26190478676277,0,-0.1299067586660385,0.8572804927825928,0.4920181930065155,-0.1299067586660385,0.8572804927825928,0.4920181930065155,0,0,0,10.0000284,10.0000113,1.023410102491873,24,987.2,1.5829999446868896,,0,0.175,0.9889999999999999,0.15034364261168384,0,-0.16540659078840228,0.8605823573166785,0.49348088121547107,classic,0,0,0,none,0,0,0,1.156939909733465,-0.16540659078840228,0.035862358846214755,0
sensor,1768474794745,59.89067117006899,0,-0.18243233859539032,0.8539154529571533,0.6337485313415527,-0.18243233859539032,0.8539154529571533,0.6337485313415527,0,0,0,10.0000668,10.0000277,1.1042452952996256,21,986.6,1.6330000162124634,,0,0,0.9319999999999999,0,0.214,-0.04751552892395346,0.9791672332585528,0.37970625887656784,classic,0,0,0,none,0,0,0,3.0507125611997243,-0.04751552892395346,0.31530896296725225,0
sensor,1768474796721,64.98749959194177,0,0.10014123469591141,1.016249179840088,0.260639488697052,0.10014123469591141,1.016249179840088,0.260639488697052,0,0,0,10.0001084,10.0000472,1.2230282176709326,19,986.1,1.649999976158142,,0,1.066,0.10099999999999998,0.9134532990574122,0,-0.06278237791839844,0.9603719187092632,0.3958419795111459,classic,0,0,0,none,0,0,0,1.5378205808612608,-0.06278237791839844,0.22006627709648843,0
sensor,1768474798742,69.61215736982246,0,-0.20087900757789612,0.8230181336402893,0.535855770111084,-0.20087900757789612,0.8230181336402893,0.535855770111084,0,0,0,10.0001468,10.0000634,1.5356764621647103,22,985.9,1.6829999685287476,,0,0.175,0.99,0.1502145922746781,0,-0.1182654732366715,0.909475117727987,0.553487313082921,classic,0,0,0,none,0,0,0,1.1453744166408928,-0.1182654732366715,0.12148204553823447,0
sensor,1768474800729,74.81394868604579,0,-0.10971636325120926,0.9074506163597107,0.5335155725479126,-0.10971636325120926,0.9074506163597107,0.5335155725479126,0,0,0,10.0001901,10.0000814,1.6478655297678708,14,985.8000000000001,1.6829999685287476,,0,0.175,0.9319999999999999,0.15808491418247514,0.058,-0.12343664180987751,0.9046849980045742,0.5437805718219867,classic,0,0,0,none,0,0,0,1.5156796027707191,-0.12343664180987751,0.017444205173769115,0
sensor,1768474802761,80.18727521225752,0,-0.2134215086698532,0.8743047118186951,0.5174091458320618,-0.2134215086698532,0.8743047118186951,0.5174091458320618,0,0,0,10.0002351,10.0000993,1.936949251844323,16,985.9,1.7000000476837158,,0,0,0.816,0,0.35,-0.1005872883242609,0.9494155607878001,0.36337150277086255,classic,0,0,0,none,0,0,0,2.196600774214153,-0.1005872883242609,0.20621586529685493,0
sensor,1768474804722,85.2625381431931,0,-0.16978275775909424,0.8215802907943726,0.4571439027786255,-0.16978275775909424,0.8215802907943726,0.4571439027786255,0,0,0,10.0002784,10.0001139,2.0338194921874946,21,985.4,1.7000000476837158,,0,0.913,0.2569999999999999,0.7803418803418805,0,-0.1155925465840143,0.9345222440169417,0.3830551160953461,classic,0,0,0,none,0,0,0,1.5700660501081467,-0.1155925465840143,0.14627039172848988,0
sensor,1768474806761,90.1693434491932,0,-0.2783825099468231,0.8591160774230957,0.49568915367126465,-0.2783825099468231,0.8591160774230957,0.49568915367126465,0,0,0,10.0003201,10.0001286,2.1388088383784116,19,985.5,1.7000000476837158,,0,0.186,0.98,0.1595197255574614,0,-0.12170618605561763,0.9237316642736655,0.3996663129085114,classic,0,0,0,none,0,0,0,1.603875987162603,-0.12170618605561763,0.19576855110856262,0
sensor,1768474808727,95.6130011704787,0,-0.2566625773906708,0.7863082885742188,0.4797815680503845,-0.2566625773906708,0.7863082885742188,0.4797815680503845,0,0,0,10.0003684,10.0001367,2.235646071744196,11,985.4,1.7000000476837158,,0,0.132,0.9840000000000001,0.11827956989247311,0.047,-0.12090843987990288,0.9157405826525162,0.4150499352637726,classic,0,0,0,none,0,0,0,1.9034448738676129,-0.12090843987990288,0.19942111846598426,0
sensor,1768474810784,100.92632375077378,0,-0.009896346367895603,1.0140007734298706,0.4209388792514801,-0.009896346367895603,1.0140007734298706,0.4209388792514801,0,0,0,10.0004134,10.0001530,2.3178918300363307,21,985.2,1.7000000476837158,,0,0.141,1.048,0.1185870479394449,0,-0.12571063163556018,0.9027121075264379,0.43227958362338814,classic,0,0,0,none,0,0,0,1.2333329545779024,-0.12571063163556018,0.16182692059657078,0
sensor,1768474812733,106.12857003134627,0,-0.24584849178791046,0.9054009318351746,0.4144075810909271,-0.24584849178791046,0.9054009318351746,0.4144075810909271,0,0,0,10.0004584,10.0001660,2.383023577915591,17,985.5,1.7000000476837158,,0,0.176,0.9440000000000001,0.1571428571428571,0.045,-0.08989420985163936,0.8860130182717196,0.5638911262206495,classic,0,0,0,none,0,0,0,1.8501973544131,-0.08989420985163936,0.21798380902627332,0
sensor,1768474814773,111.47017630680604,0,-0.19884465634822845,0.7870119214057922,0.5173020958900452,-0.19884465634822845,0.7870119214057922,0.5173020958900452,0,0,0,10.0005051,10.0001775,2.43242641250752,13,985.8000000000001,1.715999960899353,,0,0.465,0.32699999999999996,0.5871212121212122,0.381,-0.02789665499930402,0.9523730754658101,0.45348536473962225,classic,0,0,0,none,0,0,0,2.912841570963861,-0.02789665499930402,0.2474895658138251,0
sensor,1768474816739,116.49087131533649,0,-0.03487429395318031,0.9130488634109497,0.4918040633201599,-0.03487429395318031,0.9130488634109497,0.4918040633201599,0,0,0,10.0005484,10.0001905,2.472007706506513,15,986.2,1.715999960899353,,0,0.236,0.927,0.20292347377472053,0,-0.04405827782201517,0.9422802056127524,0.4530954440079932,classic,0,0,0,none,0,0,0,1.7472184229664658,-0.04405827782201517,0.04961582299370124,0
sensor,1768474818726,121.64890342143562,0,-0.17386671900749207,0.8477972149848938,0.49558207392692566,-0.17386671900749207,0.8477972149848938,0.49558207392692566,0,0,0,10.0005934,10.0002019,2.5049984342761817,14,986.1,1.715999960899353,,0,0.292,0.873,0.2506437768240343,0,-0.06555768064872826,0.9267911449074853,0.46305288287889357,classic,0,0,0,none,0,0,0,1.4501773444223505,-0.06555768064872826,0.13863897052209168,0
sensor,1768474820757,126.95082150014451,0,-0.10156373679637909,0.8611503839492798,0.47477987408638,-0.10156373679637909,0.8611503839492798,0.47477987408638,0,0,0,10.0006401,10.0002117,2.527457462857664,14,986.4,1.7000000476837158,,0,0.466,0.7,0.3996569468267582,0,-0.0827143341236832,0.9189381851864152,0.46447703626363696,classic,0,0,0,none,0,0,0,2.123197996034645,-0.0827143341236832,0.06196106989564843,0
sensor,1768474822724,132.58106432900965,0,-0.2614501416683197,0.8280044794082642,0.5187245607376099,-0.2614501416683197,0.8280044794082642,0.5187245607376099,0,0,0,10.0006901,10.0002198,2.5430241276194487,14,985.9,1.7000000476837158,,0,0.467,0.7,0.40017137960582694,0,-0.08997178250393827,0.9144582975531256,0.46724521360312754,classic,0,0,0,none,0,0,0,1.5331768221411566,-0.08997178250393827,0.19981864334933777,0
sensor,1768474824737,137.3839609127159,0,-0.12920314073562622,0.8533036708831787,0.39524200558662415,-0.12920314073562622,0.8533036708831787,0.39524200558662415,0,0,0,10.0007318,10.0002312,2.55393639545956,14,986,1.7000000476837158,,0,0.234,0.825,0.2209631728045326,0.087,-0.10249949421416239,0.9055407594743708,0.4717440531454713,classic,0,0,0,none,0,0,0,1.0671959950335055,-0.10249949421416239,0.09689172725604482,0
sensor,1768474826756,142.58620390038024,0,-0.03732161596417427,0.9289563894271851,0.48437029123306274,-0.03732161596417427,0.9289563894271851,0.48437029123306274,0,0,0,10.0007768,10.0002442,2.5581017125677685,14,986,1.7000000476837158,,0,0,1.048,0,0.117,-0.11112586114478316,0.8979368617626937,0.473022370030021,classic,0,0,0,none,0,0,0,1.4174230608685856,-0.11112586114478316,0.08126455065146207,0
sensor,1768474828736,147.2068661791198,0,-0.23544739186763763,0.8124028444290161,0.5047595500946045,-0.23544739186763763,0.8124028444290161,0.5047595500946045,0,0,0,10.0008168,10.0002556,2.556877775735349,12,985.5,1.7000000476837158,,0,0,0.898,0,0.267,-0.11298891690659098,0.8940285788113504,0.4743671793021828,classic,0,0,0,none,0,0,0,1.307568283411631,-0.11298891690659098,0.15103001425562776,0
sensor,1768474830740,152.13909063412135,0,-0.07066633552312851,0.9546533226966858,0.34140098094940186,-0.07066633552312851,0.9546533226966858,0.34140098094940186,0,0,0,10.0008601,10.0002654,2.5596199517472895,22,985.4,1.7000000476837158,,0,0.117,1.049,0.10034305317324187,0,-0.12362482748423465,0.8887250535277746,0.4774403399671844,classic,0,0,0,none,0,0,0,0.9307233312543504,-0.12362482748423465,0.16098559393273193,0
sensor,1768474832761,157.34133481664531,0,-0.15693432092666626,0.8531966209411621,0.5292327404022217,-0.15693432092666626,0.8531966209411621,0.5292327404022217,0,0,0,10.0009051,10.0002784,2.56405052774616,17,985.4,1.7000000476837158,,0,0.119,1.033,0.10329861111111112,0.042,-0.12901629875226536,0.8866247763977467,0.4768084839814822,classic,0,0,0,none,0,0,0,0.7474470478761186,-0.12901629875226536,0.06849790162357187,0
sensor,1768474834722,162.90017921775913,0,-0.2675684690475464,0.7906829118728638,0.5347391963005066,-0.2675684690475464,0.7906829118728638,0.5347391963005066,0,0,0,10.0009534,10.0002915,2.566773655285202,9,985.4,1.715999960899353,,0,0.07,1.003,0.065237651444548,0.059,-0.07618289430170828,0.9250671632378121,0.3399387301101484,classic,0,0,0,none,0,0,0,2.9436544992766436,-0.07618289430170828,0.3058890794879235,0
sensor,1768474836735,168.1024285910143,0,0.050980713218450546,0.9572076201438904,0.3205987811088562,0.050980713218450546,0.9572076201438904,0.3205987811088562,0,0,0,10.0009984,10.0003045,2.571634910549085,10,985.5,1.715999960899353,,0,1.047,0.11699999999999999,0.8994845360824743,0,-0.0851270817898405,0.917983233422694,0.3584858010017069,classic,0,0,0,none,0,0,0,1.5898106212005476,-0.0851270817898405,0.14736324855302155,0
sensor,1768474838754,173.2193493025591,0,-0.18763288855552673,0.8578923940658569,0.5267854332923889,-0.18763288855552673,0.8578923940658569,0.5267854332923889,0,0,0,10.0010434,10.0003143,2.5798101648162883,12,985.4,1.715999960899353,,0,0.64,0.4999999999999999,0.5614035087719299,0,-0.10401006144753508,0.9041944358234896,0.3852013448912287,classic,0,0,0,none,0,0,0,1.4495314682262814,-0.10401006144753508,0.17168791705578504,0
sensor,1768474840732,178.0981812775248,0,-0.029260758310556412,0.9600679278373718,0.47672244906425476,-0.029260758310556412,0.9600679278373718,0.47672244906425476,0,0,0,10.0010868,10.0003208,2.581061288838782,11,985,1.7000000476837158,,0,0.178,0.9690000000000001,0.15518744551002614,0,-0.04072243814690877,0.9384923376603673,0.266633353439031,classic,0,0,0,none,0,0,0,3.285075249782665,-0.04072243814690877,0.21256769491237879,0
sensor,1768474842750,183.57446285884737,0,-0.19762100279331207,0.8233239650726318,0.4448001980781555,-0.19762100279331207,0.8233239650726318,0.4448001980781555,0,0,0,10.0011351,10.0003306,2.5800199315059547,6,984.7,1.715999960899353,,0,0.175,0.8919999999999999,0.1640112464854733,0.058,-0.05772064572939518,0.927457436885538,0.29733348850654423,classic,0,0,0,none,0,0,0,2.3841784413904463,-0.05772064572939518,0.2295384105381377,0
sensor,1768474844750,188.9914175145279,0,-0.15918280184268951,0.8613491654396057,0.4738621413707733,-0.15918280184268951,0.8613491654396057,0.4738621413707733,0,0,0,10.0011834,10.0003370,2.5842997621629378,7,984.4,1.7330000400543213,,0,1.165,0,1,0,-0.13317021098790638,0.9405634298809677,0.45265749032777663,classic,0,0,0,none,0,0,0,1.1373507693483882,-0.13317021098790638,0.08646249204751755,0
sensor,1768474846753,194.62335694300518,0,-0.2194480299949646,0.7931301593780518,0.5379971861839294,-0.2194480299949646,0.7931301593780518,0.5379971861839294,0,0,0,10.0012334,10.0003453,2.5911201634170853,5,985,1.7829999923706055,,0,0.98,0,1,0.186,-0.16871794339357654,0.8353441410917432,0.47132088074916006,classic,0,0,0,none,0,0,0,1.8161483985667366,-0.16871794339357654,0.09428663259857935,0
sensor,1768474848731,200.41513428874939,0,-0.30051547288894653,0.7933443188667297,0.548199474811554,-0.30051547288894653,0.7933443188667297,0.548199474811554,0,0,0,10.0012818,10.0003648,2.603774672977,11,985.2,1.7829999923706055,,0,0.099,0.879,0.10122699386503069,0.169,-0.049563538557141275,0.9229289805308011,0.3487749851499536,classic,0,0,0,none,0,0,0,2.692449694002414,-0.049563538557141275,0.3474818015294295,0
sensor,1768474850765,206.07693046854945,0,0.17509037256240845,1.0625494718551636,0.36576712131500244,0.17509037256240845,1.0625494718551636,0.36576712131500244,0,0,0,10.0013318,10.0003746,2.6217949285561413,15,985.7,1.7660000324249268,,0,0.447,0.6969999999999998,0.3907342657342658,0,-0.06746494101024392,0.9142549928500732,0.37091829284694355,classic,0,0,0,none,0,0,0,1.4343941663047568,-0.06746494101024392,0.2857717277490332,0
sensor,1768474852727,211.83948430439042,0,-0.18721990287303925,0.859926700592041,0.4267512559890747,-0.18721990287303925,0.859926700592041,0.4267512559890747,0,0,0,10.0013834,10.0003795,2.644969338978163,3,986.1,1.715999960899353,,0,1.161,0,1,0,-0.08301181906798819,0.9044750303390932,0.3931781295699873,classic,0,0,0,none,0,0,0,1.5010814349638604,-0.08301181906798819,0.11879309079390021,0
sensor,1768474854755,217.05978535681768,0,-0.15673549473285675,0.8768591284751892,0.41838446259498596,-0.15673549473285675,0.8768591284751892,0.41838446259498596,0,0,0,10.0014301,10.0003843,2.6627362461656867,7,986.3000000000001,1.7000000476837158,,0,0.173,0.99,0.14875322441960445,0,0.01709184940347049,0.9953752902773894,0.47680834574468023,classic,0,0,0,none,0,0,0,3.334969080447353,0.01709184940347049,0.21944413800304613,0
sensor,1768474856737,222.44209382884162,0,0.011823609471321106,0.8695170879364014,0.475498765707016,0.011823609471321106,0.8695170879364014,0.475498765707016,0,0,0,10.0014784,10.0003876,2.6774711033790197,10,986.5,1.75,,0,0.29,0.907,0.2422723475355054,0,-0.002251188208195482,0.9775197368304052,0.47558145886732534,classic,0,0,0,none,0,0,0,1.8987354633834648,-0.002251188208195482,0.10946324220903468,0
sensor,1768474858753,227.45831355620612,0,-0.17609989643096924,0.7898721694946289,0.5425859093666077,-0.17609989643096924,0.7898721694946289,0.5425859093666077,0,0,0,10.0015234,10.0003908,2.6936963592861782,5,986.1,1.7660000324249268,,0,0.222,0.9430000000000001,0.1905579399141631,0,-0.03008759543289914,0.9545849133348779,0.48580166382301226,classic,0,0,0,none,0,0,0,2.0614368990631755,-0.03008759543289914,0.2284621969783743,0
sensor,1768474860734,232.66384496050208,0,-0.06913676112890244,1.053264856338501,0.45295286178588867,-0.06913676112890244,1.053264856338501,0.45295286178588867,0,0,0,10.0015701,10.0003941,2.7036151597933946,3,986.7,1.7829999923706055,,0,0.38,0.771,0.3301476976542137,0,-0.04805566356201632,0.9402465256822354,0.4875668330608677,classic,0,0,0,none,0,0,0,1.8037110707096586,-0.04805566356201632,0.12066867034657601,0
sensor,1768474862731,238.43746661323928,0,-0.2597217261791229,0.8514681458473206,0.4028898775577545,-0.2597217261791229,0.8514681458473206,0.4028898775577545,0,0,0,10.0016218,10.0003990,2.7055054192318035,4,987.2,1.7330000400543213,,0,0.235,0.9209999999999999,0.20328719723183392,0.042,-0.0655592645819115,0.9317267075231612,0.48014776299117606,classic,0,0,0,none,0,0,0,2.2839030222298216,-0.0655592645819115,0.22497589932321188,0
sensor,1768474864754,244.00841929646018,0,-0.18549148738384247,0.9330403804779053,0.4276689887046814,-0.18549148738384247,0.9330403804779053,0.4276689887046814,0,0,0,10.0016718,10.0004022,2.7064964556951945,3,988.1,1.715999960899353,,0,0.35,0.816,0.30017152658662094,0,-0.08679471809797207,0.9186751085563262,0.48486757057921637,classic,0,0,0,none,0,0,0,1.5462667199657307,-0.08679471809797207,0.11555206647643824,0
sensor,1768474866757,249.19329915770822,0,-0.16805434226989746,0.838512659072876,0.45550721883773804,-0.16805434226989746,0.838512659072876,0.45550721883773804,0,0,0,10.0017184,10.0004039,2.7036252371241325,2,987.8000000000001,1.7000000476837158,,0,0.383,0.6990000000000001,0.3539741219963031,0.083,-0.09828023881156848,0.9132818141873696,0.4843909700039993,classic,0,0,0,none,0,0,0,1.3089726260610677,-0.09828023881156848,0.10680312284385253,0
sensor,1768474868723,254.20951793854934,0,-0.27123939990997314,0.7560227513313293,0.6184528470039368,-0.27123939990997314,0.7560227513313293,0.6184528470039368,0,0,0,10.0017634,10.0004071,2.696840048842985,4,987.8000000000001,1.7000000476837158,,0,0.367,0.583,0.3863157894736842,0.232,-0.10653284339445035,0.9064065611465772,0.4843700659910009,classic,0,0,0,none,0,0,0,1.7013729456664735,-0.10653284339445035,0.26154170356441986,0
sensor,1768474870760,259.78046378904827,0,-0.018553735688328743,1.0400035381317139,0.28185468912124634,-0.018553735688328743,1.0400035381317139,0.28185468912124634,0,0,0,10.0018134,10.0004103,2.691225237443123,1,987.7,1.7000000476837158,,0,0.117,1.048,0.10042918454935623,0,-0.11500771117673118,0.9015202791191249,0.4813820004546176,classic,0,0,0,none,0,0,0,1.5562316400388163,-0.11500771117673118,0.26264083451846526,0
sensor,1768474872740,264.986000532826,0,-0.21586883068084717,0.8787863850593567,0.45439067482948303,-0.21586883068084717,0.8787863850593567,0.45439067482948303,0,0,0,10.0018601,10.0004137,2.689350839624698,2,987.3000000000001,1.7000000476837158,,0,0.291,0.466,0.38441215323645966,0.409,-0.1230706746409169,0.8947171467699717,0.48722412507988805,classic,0,0,0,none,0,0,0,1.054722850281028,-0.1230706746409169,0.10021729573493082,0
sensor,1768474874724,270.35979411741124,0,-0.1904778927564621,0.8318896293640137,0.537599503993988,-0.1904778927564621,0.8318896293640137,0.537599503993988,0,0,0,10.0019084,10.0004120,2.688693872987402,2,987,1.7000000476837158,,0,0.581,0.46499999999999997,0.5554493307839389,0.118,-0.1271215231570378,0.8901816991386429,0.4877949023139141,classic,0,0,0,none,0,0,0,1.8165797673860002,-0.1271215231570378,0.09996081814113607,0
sensor,1768474876734,275.9195381496818,0,0.060265228152275085,0.9275339245796204,0.4810052216053009,0.060265228152275085,0.9275339245796204,0.4810052216053009,0,0,0,10.0019584,10.0004120,2.6916671166064203,3,986.6,1.715999960899353,,0,0.059,0.9319999999999999,0.059535822401614535,0.175,-0.12040946479236944,0.8870626607275889,0.488222586657894,classic,0,0,0,none,0,0,0,2.526653949628406,-0.12040946479236944,0.18622374737255548,0
sensor,1768474878743,280.9051726966473,0,-0.1781495213508606,0.835346519947052,0.47080299258232117,-0.1781495213508606,0.835346519947052,0.47080299258232117,0,0,0,10.0020018,10.0004234,2.698911058986461,3,986,1.715999960899353,,0,0,1.095,0,0.059,-0.12976731547942477,0.879782916206879,0.493378471349872,classic,0,0,0,none,0,0,0,0.6486944476843766,-0.12976731547942477,0.0698118796630475,0
sensor,1768474880725,286.2786087233039,0,-0.1895601600408554,0.8303599953651428,0.46702495217323303,-0.1895601600408554,0.8303599953651428,0.46702495217323303,0,0,0,10.0020501,10.0004250,2.706881259457067,4,986.5,1.7829999923706055,,0,0.966,0.13100000000000006,0.8805834092980857,0.068,-0.008483668233964016,0.9539009966481364,0.4249288593997808,classic,0,0,0,none,0,0,0,2.1936342513756326,-0.008483668233964016,0.22433267544852675,0
sensor,1768474882764,292.0302599391826,0,-0.15295743942260742,0.81087327003479,0.5223954916000366,-0.15295743942260742,0.81087327003479,0.5223954916000366,0,0,0,10.0021018,10.0004267,2.7111391724747516,2,986.6,1.7999999523162842,,0,0.467,0.46799999999999997,0.4994652406417112,0.248,-0.02534856528776014,0.9419730336209455,0.4304044501205897,classic,0,0,0,none,0,0,0,1.6959424530680702,-0.02534856528776014,0.2058057964211453,0
sensor,1768474884745,297.2151408452002,0,-0.1604064553976059,0.8300541043281555,0.32243427634239197,-0.1604064553976059,0.8300541043281555,0.32243427634239197,0,0,0,10.0021484,10.0004250,2.715681914045967,4,986.1,1.7999999523162842,,0,0.115,1.053,0.09845890410958905,0,-0.05086808576720636,0.9263069663668806,0.4416960831356238,classic,0,0,0,none,0,0,0,1.7079228266213042,-0.05086808576720636,0.18932562491433605,0
sensor,1768474886729,302.23212752063716,0,-0.09350287914276123,0.9090719223022461,0.4846762418746948,-0.09350287914276123,0.9090719223022461,0.4846762418746948,0,0,0,10.0021934,10.0004283,2.7161308592893403,4,986.1,1.7330000400543213,,0,0,1.179,0,0,-0.178970815187575,0.8136578767933464,0.444736927632957,classic,0,0,0,none,0,0,0,1.5983560569814086,-0.178970815187575,0.1348523411158729,0
sensor,1768474888748,307.6166835121668,0,-0.2967374324798584,0.8263831734657288,0.5904157161712646,-0.2967374324798584,0.8263831734657288,0.5904157161712646,0,0,0,10.0022418,10.0004299,2.711585378501694,2,986.3000000000001,1.7000000476837158,,0,0.466,0.6950000000000001,0.4013781223083549,0,-0.1764029269577045,0.8244743310084286,0.44646451208617355,classic,0,0,0,none,0,0,0,0.9845668120920134,-0.1764029269577045,0.18857545990804034,0
sensor,1768474890722,313.03504431280226,0,0.04171149432659149,0.8438202738761902,0.3451790511608124,0.04171149432659149,0.8438202738761902,0.3451790511608124,0,0,0,10.0022901,10.0004364,2.7070932025619743,6,986.7,1.7000000476837158,,0,0.161,0.984,0.1406113537117904,0,-0.17497817603771992,0.8313721744961597,0.45521044001948235,classic,0,0,0,none,0,0,0,1.4747622715482058,-0.17497817603771992,0.24456677762814194,0
sensor,1768474892750,318.43234636119786,0,-0.18293708562850952,0.8429943323135376,0.48843899369239807,-0.18293708562850952,0.8429943323135376,0.48843899369239807,0,0,0,10.0023384,10.0004413,2.7018873836055786,4,987,1.7000000476837158,,0,0.045,1.049,0.04113345521023767,0.07,-0.1716265282182854,0.8334461028822645,0.46320665501470615,classic,0,0,0,none,0,0,0,0.8864950022990115,-0.1716265282182854,0.029400520499460594,0
sensor,1768474894733,323.82575433239026,0,-0.19160978496074677,0.8467724323272705,0.5130192041397095,-0.19160978496074677,0.8467724323272705,0.5130192041397095,0,0,0,10.0023868,10.0004445,2.69524493107744,8,986.7,1.7000000476837158,,0,0,0.935,0,0.224,-0.1654490342449932,0.8374110349257236,0.46515100199846476,classic,0,0,0,none,0,0,0,1.2278909972007144,-0.1654490342449932,0.05562598821541826,0
sensor,1768474896751,329.19646686982855,0,-0.1717253178358078,0.9021429419517517,0.37118181586265564,-0.1717253178358078,0.9021429419517517,0.37118181586265564,0,0,0,10.0024351,10.0004445,2.6898876566929966,4,987.1,1.75,,0,0.174,0.992,0.14922813036020582,0,-0.16103038178056037,0.8448078710179675,0.4630446611046741,classic,0,0,0,none,0,0,0,2.6575054695739952,-0.16103038178056037,0.10936074747699465,0
sensor,1768474898735,334.94811911888894,0,-0.14642615616321564,0.8384056091308594,0.48865312337875366,-0.14642615616321564,0.8384056091308594,0.48865312337875366,0,0,0,10.0024868,10.0004462,2.6891911604808265,3,987.7,1.75,,0,0.116,1.0399999999999998,0.10034602076124569,0,-0.16416627482008803,0.8445117350369602,0.4708386295474747,classic,0,0,0,none,0,0,0,0.8395999867323181,-0.16416627482008803,0.0260018622407048,0
sensor,1768474900732,340.5108407742469,0,-0.1067642942070961,0.9152973294258118,0.29949066042900085,-0.1067642942070961,0.9152973294258118,0.29949066042900085,0,0,0,10.0025368,10.0004479,2.689514335190807,4,987.9,1.7829999923706055,,0,0.118,1.044,0.10154905335628227,0,-0.08668697340966662,0.8663199378738621,0.3408639103779594,classic,0,0,0,none,0,0,0,2.0054132953415587,-0.08668697340966662,0.0675211566343652,0
sensor,1768474902755,345.72008080807973,0,-0.19925765693187714,0.8315836787223816,0.4345061779022217,-0.19925765693187714,0.8315836787223816,0.4345061779022217,0,0,0,10.0025834,10.0004527,2.6883194027847983,8,988.4,1.75,,0,0,1.166,0,0,-0.01150687965787677,0.9643269189237679,0.23923723725048338,classic,0,0,0,none,0,0,0,2.916639907889131,-0.01150687965787677,0.3031797536954578,0
sensor,1768474904737,350.5973526208093,0,-0.09258513897657394,0.8481948375701904,0.39902007579803467,-0.09258513897657394,0.8481948375701904,0.39902007579803467,0,0,0,10.0026268,10.0004592,2.6881286693904056,7,987.7,1.75,,0,0.645,0.5409999999999999,0.5438448566610455,0,-0.03629517991873773,0.9447261458091658,0.2842333776679247,classic,0,0,0,none,0,0,0,2.8130130161335245,-0.03629517991873773,0.16100125789566902,0
sensor,1768474906736,355.79179162784374,0,-0.09166739135980606,0.9659720659255981,0.5780720114707947,-0.09166739135980606,0.9659720659255981,0.5780720114707947,0,0,0,10.0026734,10.0004625,2.6860526651763363,3,987.5,1.75,,0,0.795,0.35099999999999987,0.693717277486911,0,-0.09109611763496098,0.9455187125608544,0.46250774514024817,classic,0,0,0,none,0,0,0,2.005899731019101,-0.09109611763496098,0.11795144462600121,0
sensor,1768474908763,361.5514009043366,0,-0.28072279691696167,0.8129228949546814,0.602851152420044,-0.28072279691696167,0.8129228949546814,0.602851152420044,0,0,0,10.0027251,10.0004657,2.681531476972362,4,987.7,1.75,,0,0.7,0.4650000000000001,0.6008583690987124,0,-0.09819419737175626,0.9315002175400959,0.4659131822752038,classic,0,0,0,none,0,0,0,1.9459967378266585,-0.09819419737175626,0.25844837880475074,0
sensor,1768474910742,366.9697651152285,0,0.007341957185417414,0.9604656100273132,0.26308679580688477,0.007341957185417414,0.9604656100273132,0.26308679580688477,0,0,0,10.0027734,10.0004723,2.6765880930719033,2,988.3000000000001,1.75,,0,0.035,1.0310000000000001,0.03283302063789869,0.081,-0.019119371870645635,1.00526174921665,0.22833466323595264,classic,0,0,0,none,0,0,0,1.9630307127566948,-0.019119371870645635,0.06288122432353141,0
sensor,1768474912725,372.0231412046933,0,-0.19925765693187714,0.8229110240936279,0.49669867753982544,-0.19925765693187714,0.8229110240936279,0.49669867753982544,0,0,0,10.0028184,10.0004787,2.673330941205827,3,988.8000000000001,1.715999960899353,,0,1.173,0,1,0,-0.04280066482519336,0.9797715836406792,0.27366877268021067,classic,0,0,0,none,0,0,0,2.9626345859359833,-0.04280066482519336,0.31594633930965615,0
sensor,1768474914769,376.87857478931875,0,-0.12369667738676071,0.8084259629249573,0.474672794342041,-0.12369667738676071,0.8084259629249573,0.474672794342041,0,0,0,10.0028618,10.0004836,2.665541034899583,4,989.2,1.7000000476837158,,0,0.989,0.17600000000000005,0.8489270386266095,0,-0.03167806720689871,0.9660025705485631,0.3271897283779021,classic,0,0,0,none,0,0,0,3.1447969381284917,-0.03167806720689871,0.23580439707464135,0
sensor,1768474916753,381.74640583663137,0,-0.18029092252254486,0.8556439280509949,0.47794610261917114,-0.18029092252254486,0.8556439280509949,0.47794610261917114,0,0,0,10.0029051,10.0004902,2.654795557338925,7,989.4,1.715999960899353,,0,0.373,0.7909999999999999,0.32044673539518903,0,-0.05114742783371826,0.8445813595473627,0.32435343927154237,classic,0,0,0,none,0,0,0,2.4863122659414882,-0.05114742783371826,0.20198537031809605,0
sensor,1768474918727,386.9512000366682,0,-0.16121713817119598,0.8073093295097351,0.4446931481361389,-0.16121713817119598,0.8073093295097351,0.4446931481361389,0,0,0,10.0029518,10.0004934,2.6443131490316687,3,988.8000000000001,1.715999960899353,,0,0.287,0.8780000000000001,0.24635193133047206,0,-0.07315962810549809,0.8435866636627595,0.35538611477284565,classic,0,0,0,none,0,0,0,1.9900056546220035,-0.07315962810549809,0.13121609064152315,0
sensor,1768474920747,392.145641909133,0,-0.11216369271278381,0.9022499918937683,0.6688369512557983,-0.11216369271278381,0.9022499918937683,0.6688369512557983,0,0,0,10.0029984,10.0004967,2.6312631887138047,1,987.8000000000001,1.715999960899353,,0,0.06,1.0879999999999999,0.05226480836236934,0,-0.13116689538310486,0.9013050365672834,0.5340829704918548,classic,0,0,0,none,0,0,0,1.9320924231816339,-0.13116689538310486,0.13677446710248223,0
sensor,1768474922749,397.3504396152481,0,-0.24676622450351715,0.797933042049408,0.5313741564750671,-0.24676622450351715,0.797933042049408,0.5313741564750671,0,0,0,10.0030451,10.0004999,2.6186456134997798,2,987.3000000000001,1.7000000476837158,,0,0.338,0.7379999999999998,0.3141263940520447,0.07,-0.13242681796154196,0.8979703764156385,0.5215358902060718,classic,0,0,0,none,0,0,0,1.0561986994580437,-0.13242681796154196,0.15300747442121448,0
sensor,1768474924727,402.7242334255529,0,0.03721454739570618,1.0042115449905396,0.26114422082901,0.03721454739570618,1.0042115449905396,0.26114422082901,0,0,0,10.0030934,10.0005016,2.6125841419539477,2,987.4,1.7000000476837158,,0,0.357,0.742,0.3248407643312102,0.044,-0.1394066752728638,0.8909107272565829,0.5156484010810919,classic,0,0,0,none,0,0,0,1.1648984558586781,-0.1394066752728638,0.33151284973293277,0
sensor,1768474926735,407.92903015768593,0,-0.1769258677959442,0.852171778678894,0.5204682350158691,-0.1769258677959442,0.852171778678894,0.5204682350158691,0,0,0,10.0031401,10.0005048,2.613574600769584,7,987.3000000000001,1.7330000400543213,,0,0.233,0.914,0.2031386224934612,0,-0.0905817954037495,0.9019494599142119,0.3906749363451949,classic,0,0,0,none,0,0,0,1.5111771174575805,-0.0905817954037495,0.16446650985555508,0
sensor,1768474928757,412.77341131980586,0,-0.15896865725517273,0.8969424366950989,0.5464710593223572,-0.15896865725517273,0.8969424366950989,0.5464710593223572,0,0,0,10.0031834,10.0005097,2.6169726998886906,6,987.1,1.7660000324249268,,0,0.058,0.9319999999999999,0.05858585858585859,0.177,-0.10468234039593328,0.8977528235258846,0.4017641672029101,classic,0,0,0,none,0,0,0,2.2423567254143046,-0.10468234039593328,0.15533327591740834,0
sensor,1768474930747,417.9937020667947,0,-0.3038805425167084,0.8260772228240967,0.47152188420295715,-0.3038805425167084,0.8260772228240967,0.47152188420295715,0,0,0,10.0032301,10.0005146,2.6253913591517977,4,987.3000000000001,1.815999984741211,,0,0,1.141,0,0,-0.10940664724218577,0.8956878769279907,0.4094191372161932,classic,0,0,0,none,0,0,0,2.2240102171946066,-0.10940664724218577,0.21677460134552282,0
sensor,1768474932760,423.37601480262725,0,-0.1248132735490799,0.8384056091308594,0.516185462474823,-0.1248132735490799,0.8384056091308594,0.516185462474823,0,0,0,10.0032784,10.0005178,2.6352350939109033,3,987.7,1.7829999923706055,,0,0.524,0.641,0.4497854077253219,0,-0.12176387673020063,0.8884540177330829,0.42720249887351197,classic,0,0,0,none,0,0,0,1.005563431439659,-0.12176387673020063,0.10265095514068301,0
sensor,1768474934744,428.3830972314848,0,-0.041099660098552704,1.0721246004104614,0.5246440172195435,-0.041099660098552704,1.0721246004104614,0.5246440172195435,0,0,0,10.0033234,10.0005195,2.634737417399202,2,988.4,1.75,,0,0.115,0.8720000000000001,0.11651469098277609,0.178,-0.12608317916098677,0.8858548597036603,0.43379112659809377,classic,0,0,0,none,0,0,0,1.7562376925707177,-0.12608317916098677,0.2251185896007723,0
sensor,1768474936734,434.1347491989037,0,-0.21016351878643036,0.8141465187072754,0.501807451248169,-0.21016351878643036,0.8141465187072754,0.501807451248169,0,0,0,10.0033751,10.0005211,2.629730508896678,4,988.4,1.7000000476837158,,0,0.115,1.041,0.0994809688581315,0,-0.12604317368353007,0.8835544833296382,0.44051304832231414,classic,0,0,0,none,0,0,0,1.1829127549902116,-0.12604317368353007,0.12573142224166914,0
sensor,1768474938730,439.33955050853996,0,-0.06964152306318283,0.8679875731468201,0.4751928746700287,-0.06964152306318283,0.8679875731468201,0.4751928746700287,0,0,0,10.0034218,10.0005244,2.6212649948282354,4,988.2,1.7000000476837158,,0,1.051,0.1160000000000001,0.9005998286203941,0,-0.13370731682235135,0.8760203507224145,0.4518330132540492,classic,0,0,0,none,0,0,0,0.6652005868403794,-0.13370731682235135,0.06900823781539969,0
sensor,1768474940750,444.3557696790045,0,-0.1775376945734024,0.8175116777420044,0.4461309313774109,-0.1775376945734024,0.8175116777420044,0.4461309313774109,0,0,0,10.0034668,10.0005276,2.6091171335282186,2,987.9,1.7000000476837158,,0,0.845,0.05699999999999994,0.9368070953436808,0.244,-0.13505899556163573,0.8737183442627844,0.4575514308566021,classic,0,0,0,none,0,0,0,1.48693495452815,-0.13505899556163573,0.07173131970890241,0
sensor,1768474942734,449.3595413780185,0,-0.25900283455848694,0.8550320267677307,0.5934748649597168,-0.25900283455848694,0.8550320267677307,0.5934748649597168,0,0,0,10.0035118,10.0005276,2.5904517275137633,2,987.4,1.7000000476837158,,0,0.408,0.4930000000000001,0.45283018867924524,0.232,-0.1372751756724348,0.8738753587676648,0.4592402385119094,classic,0,0,0,none,0,0,0,1.1853281254547638,-0.1372751756724348,0.18310120534564073,0
sensor,1768474944755,454.54405159450647,0,0.1658058613538742,0.9796465635299683,0.13735578954219818,0.1658058613538742,0.9796465635299683,0.13735578954219818,0,0,0,10.0035584,10.0005260,2.5769734623284495,2,987.4,1.7000000476837158,,0,0,0.857,0,0.291,-0.13824953909226062,0.8711103947682817,0.46059297649437647,classic,0,0,0,none,0,0,0,1.9044964787920866,-0.13824953909226062,0.4591458859347165,0
sensor,1768474946737,459.92860734355634,0,-0.1549917608499527,0.8456557989120483,0.49761641025543213,-0.1549917608499527,0.8456557989120483,0.49761641025543213,0,0,0,10.0036068,10.0005276,2.5659888072508745,5,987.6,1.7000000476837158,,0,0.993,0.17400000000000004,0.8508997429305912,0,-0.1414790461890749,0.8687049011688768,0.47198087931339266,classic,0,0,0,none,0,0,0,0.8830800956957204,-0.1414790461890749,0.03721355783416715,0
sensor,1768474948729,465.0124820820846,0,-0.22626993060112,0.7783545255661011,0.5105719566345215,-0.22626993060112,0.7783545255661011,0.5105719566345215,0,0,0,10.0036518,10.0005358,2.553142045938639,10,987.4,1.7000000476837158,,0,0.118,1.0310000000000001,0.10269799825935595,0,-0.13672590466896045,0.8657165948564536,0.47654117923689954,classic,0,0,0,none,0,0,0,1.3778703131708776,-0.13672590466896045,0.13029854258727064,0
sensor,1768474950735,470.2061842666459,0,-0.07903310656547546,0.8524776697158813,0.34751930832862854,-0.07903310656547546,0.8524776697158813,0.34751930832862854,0,0,0,10.0036984,10.0005390,2.543908072533797,8,987.7,1.7000000476837158,,0,0.234,0.913,0.20401046207497822,0,-0.12960481071666125,0.8653104600598539,0.47598189208630926,classic,0,0,0,none,0,0,0,2.686849614833703,-0.12960481071666125,0.13935032422010193,0
sensor,1768474952761,475.20995735660887,0,-0.2432023286819458,0.8630928993225098,0.40594902634620667,-0.2432023286819458,0.8630928993225098,0.40594902634620667,0,0,0,10.0037434,10.0005390,2.5400242416554875,5,987.8000000000001,1.7000000476837158,,0,0.35,0.8150000000000001,0.3004291845493562,0,-0.1387438991337835,0.8611075415198177,0.48193933793078814,classic,0,0,0,none,0,0,0,0.6876202331593029,-0.1387438991337835,0.12983910458705247,0
sensor,1768474954763,480.41475280189866,0,-0.2430034875869751,0.792426586151123,0.6166173219680786,-0.2430034875869751,0.792426586151123,0.6166173219680786,0,0,0,10.0037901,10.0005423,2.5333021890493126,6,987.8000000000001,1.7000000476837158,,0,0.173,0.8929999999999999,0.16228893058161353,0.047,-0.14609564366206818,0.8513386003322544,0.33178813603660945,classic,0,0,0,none,0,0,0,2.632858638231534,-0.14609564366206818,0.3081175286997946,0
sensor,1768474956729,485.9856991770458,0,-0.21219784021377563,0.8929654955863953,0.5041477084159851,-0.21219784021377563,0.8929654955863953,0.5041477084159851,0,0,0,10.0038401,10.0005390,2.5255301878392364,359,987.5,1.715999960899353,,0,0.582,0.564,0.5078534031413613,0,-0.14641672488096757,0.8582415222508272,0.34992076115592113,classic,0,0,0,none,0,0,0,2.1386305118280355,-0.14641672488096757,0.17208795133057017,0
sensor,1768474958769,490.8038809364124,0,-0.12216710299253464,0.7742705345153809,0.5527881979942322,-0.12216710299253464,0.7742705345153809,0.5527881979942322,0,0,0,10.0038834,10.0005407,2.52053435528631,3,986.9,1.715999960899353,,0,0.348,0.8170000000000001,0.2987124463519313,0,-0.14995080024599483,0.8556171361879935,0.3789093270015108,classic,0,0,0,none,0,0,0,1.6924228373027455,-0.14995080024599483,0.19494136689350475,0
sensor,1768474960749,495.0776440305646,0,-0.10472995042800903,0.9291704893112183,0.5750129222869873,-0.10472995042800903,0.9291704893112183,0.5750129222869873,0,0,0,10.0039218,10.0005390,2.5118749844103165,1,987.7,1.715999960899353,,0,1.111,0.04200000000000004,0.9635732870771899,0,-0.15076524191832366,0.8575751073609035,0.39765351310333524,classic,0,0,0,none,0,0,0,1.9219178454807933,-0.15076524191832366,0.19771556326873102,0
sensor,1768474962731,500.2713405761889,0,-0.20037424564361572,0.8736929297447205,0.47141480445861816,-0.20037424564361572,0.8736929297447205,0.47141480445861816,0,0,0,10.0039684,10.0005423,2.5000546390840355,5,987.9,1.7000000476837158,,0,0.171,1.01,0.14479254868755292,0,-0.1511193751880125,0.8612322397650894,0.39847427668290236,classic,0,0,0,none,0,0,0,1.298850586610231,-0.1511193751880125,0.08933781150836194,0
sensor,1768474964770,505.6797060539798,0,-0.1664176881313324,0.860645592212677,0.4584593176841736,-0.1664176881313324,0.860645592212677,0.4584593176841736,0,0,0,10.0040168,10.0005471,2.4941840463919407,4,987.8000000000001,1.7000000476837158,,0,0.145,1.021,0.12435677530017153,0,-0.15560857955430482,0.859466255140752,0.4149957323665405,classic,0,0,0,none,0,0,0,0.7382379761007892,-0.15560857955430482,0.045028164300082274,0
sensor,1768474966696,510.8741496329238,0,-0.3319176435470581,0.7688711881637573,0.720429539680481,-0.3319176435470581,0.7688711881637573,0.720429539680481,0,0,0,10.0040634,10.0005505,2.4942452679239406,2,987.6,1.7000000476837158,,0,0.233,0.914,0.2031386224934612,0,-0.15746935722858552,0.8609911021486425,0.426039497237848,classic,0,0,0,none,0,0,0,2.389118227265369,-0.15746935722858552,0.35615881291082746,0
sensor,1768474968796,515.8903688011728,0,-0.28898248076438904,0.8102614283561707,0.4465286433696747,-0.28898248076438904,0.8102614283561707,0.4465286433696747,0,0,0,10.0041084,10.0005537,2.49428562764545,1,987.1,1.7000000476837158,,0,0.061,1.087,0.05313588850174216,0,-0.011936619083039914,0.9738721814539767,0.3818613632286931,classic,0,0,0,none,0,0,0,2.8347116211338736,-0.011936619083039914,0.32983317695910835,0
sensor,1768474970757,521.1585840916679,0,-0.027425268664956093,0.8592077493667603,0.509149432182312,-0.027425268664956093,0.8592077493667603,0.509149432182312,0,0,0,10.0041551,10.0005618,2.506313335654432,5,986.9,1.7000000476837158,,0,0.584,0.582,0.5008576329331046,0,-0.038140158631270245,0.955095562653923,0.39742741140950627,classic,0,0,0,none,0,0,0,1.6926546779568188,-0.038140158631270245,0.1483598589267235,0
sensor,1768474972745,526.5769450633751,0,-0.22382262349128723,0.8184293508529663,0.4146217107772827,-0.22382262349128723,0.8184293508529663,0.4146217107772827,0,0,0,10.0042034,10.0005683,2.5271645802335905,4,987.1,1.7000000476837158,,0,0.117,0.939,0.11079545454545454,0.116,-0.024503707010532103,0.9494509337848273,0.40575990076130597,classic,0,0,0,none,0,0,0,2.5284902586748466,-0.024503707010532103,0.2398900814293804,0
sensor,1768474974777,531.9703533399984,0,-0.1779353767633438,0.769574761390686,0.5203611850738525,-0.1779353767633438,0.769574761390686,0.5203611850738525,0,0,0,10.0042518,10.0005716,2.5450290593370983,359,987.2,1.7000000476837158,,0,0.059,0.9920000000000001,0.05613701236917221,0.116,-0.03896215390150083,0.9361349726154393,0.4172135551223511,classic,0,0,0,none,0,0,0,2.3630708017004545,-0.03896215390150083,0.2414054749142123,0
sensor,1768474976755,536.8381899204436,0,-0.20904691517353058,1.0272620916366577,0.5051724910736084,-0.20904691517353058,1.0272620916366577,0.5051724910736084,0,0,0,10.0042951,10.0005781,2.562610088151204,9,987.2,1.7000000476837158,,0,0.914,0.253,0.7832047986289632,0,-0.057518459417126314,0.9227963683013117,0.4312779928372291,classic,0,0,0,none,0,0,0,1.416169928979176,-0.057518459417126314,0.19932553916742232,0
sensor,1768474978743,541.6658639180959,0,-0.20649254322052002,0.8743047118186951,0.48456916213035583,-0.20649254322052002,0.8743047118186951,0.48456916213035583,0,0,0,10.0043384,10.0005813,2.5769652615917584,2,987.1,1.7000000476837158,,0,0.815,0.287,0.7395644283121597,0.052,-0.1181582719003732,0.9005507055620499,0.40584487280105697,classic,0,0,0,none,0,0,0,1.5270806380424844,-0.1181582719003732,0.12180850377029719,0
sensor,1768474980777,547.414634322865,0,-0.2918427884578705,0.8159820437431335,0.5714489817619324,-0.2918427884578705,0.8159820437431335,0.5714489817619324,0,0,0,10.0043901,10.0005813,2.5841417120586625,6,987.2,1.7000000476837158,,0,0.174,0.938,0.1564748201438849,0.046,-0.12308511342425553,0.894773508669942,0.41798270317535696,classic,0,0,0,none,0,0,0,1.8194905863666313,-0.12308511342425553,0.24254058463449912,0
sensor,1768474982731,553.163412030017,0,0.16152305901050568,0.8953057527542114,0.5334084630012512,0.16152305901050568,0.8953057527542114,0.5334084630012512,0,0,0,10.0044418,10.0005813,2.590728406234329,2,986.9,1.7000000476837158,,0,0,1.166,0,0,-0.12319867262081864,0.8906814174703799,0.4322033768909198,classic,0,0,0,none,0,0,0,1.7789942239007086,-0.12319867262081864,0.30372770256377807,0
sensor,1768474984752,557.8034168957926,0,-0.18741874396800995,0.8680793046951294,0.5198564529418945,-0.18741874396800995,0.8680793046951294,0.5198564529418945,0,0,0,10.0044834,10.0005847,2.594189295108888,4,986.5,1.7000000476837158,,0,0.856,0.24500000000000005,0.7774750227066304,0.048,-0.12921908958242687,0.8854454868742023,0.4419907660771597,classic,0,0,0,none,0,0,0,1.0914164688154577,-0.12921908958242687,0.09924769031429094,0
sensor,1768474986735,562.85678588212,0,-0.18721990287303925,0.8456557989120483,0.5619655847549438,-0.18721990287303925,0.8456557989120483,0.5619655847549438,0,0,0,10.0045284,10.0005911,2.593336021979175,5,985.9,1.7000000476837158,,0,0.116,0.8179999999999998,0.12419700214132766,0.234,-0.04388491757905807,0.9169102224683255,0.28924907858620175,classic,0,0,0,none,0,0,0,3.573810874059616,-0.04388491757905807,0.31781113526986654,0
sensor,1768474988756,568.250189806998,0,0.011425920762121677,0.9773979783058167,0.35894519090652466,0.011425920762121677,0.9773979783058167,0.35894519090652466,0,0,0,10.0045768,10.0005879,2.595989083114555,3,986.3000000000001,1.715999960899353,,0,0,1.0299999999999998,0,0.116,-0.05759589312283262,0.9110477949524577,0.31644953301609086,classic,0,0,0,none,0,0,0,1.2728268965875649,-0.05759589312283262,0.10527482788713748,0
sensor,1768474990731,573.8129101567969,0,-0.13440369069576263,0.8537012934684753,0.509149432182312,-0.13440369069576263,0.8537012934684753,0.509149432182312,0,0,0,10.0046268,10.0005896,2.6006486481404005,3,986.1,1.715999960899353,,0,1.067,0.08000000000000007,0.9302528334786399,0,-0.07667181851094636,0.9006471832002761,0.34735413685970024,classic,0,0,0,none,0,0,0,1.9182966816419758,-0.07667181851094636,0.17898084758327287,0
sensor,1768474992722,578.8199921636998,0,-0.19425594806671143,0.8848128914833069,0.6103001832962036,-0.19425594806671143,0.8848128914833069,0.6103001832962036,0,0,0,10.0046718,10.0005879,2.6035726088934004,0,986.6,1.715999960899353,,0,0.563,0.40299999999999997,0.582815734989648,0.176,-0.08964002348068177,0.8949210965937092,0.36745777337194896,classic,0,0,0,none,0,0,0,2.813818412055266,-0.08964002348068177,0.26594093562906995,0
sensor,1768474994728,584.1937843490305,0,-0.23555445671081543,0.893470287322998,0.6543518900871277,-0.23555445671081543,0.893470287322998,0.6543518900871277,0,0,0,10.0047201,10.0005896,2.6043207249671587,5,986.9,1.715999960899353,,0,0.294,0.7849999999999999,0.27247451343836887,0.048,-0.10093234055625118,0.8940616206567392,0.3781859548162596,classic,0,0,0,none,0,0,0,2.144455553213437,-0.10093234055625118,0.3087752019468494,0
sensor,1768474996785,589.3865888403978,0,-0.21811731159687042,0.9041772484779358,0.5116884708404541,-0.21811731159687042,0.9041772484779358,0.5116884708404541,0,0,0,10.0047668,10.0005896,2.60830561415015,356,987.2,1.715999960899353,,0,0.119,1.023,0.1042031523642732,0,-0.1694582115673494,0.8222541549077971,0.5247464918435472,classic,0,0,0,none,0,0,0,0.7298550121351923,-0.1694582115673494,0.09665820035082426,0
sensor,1768474998727,594.5710981281362,0,-0.2542152404785156,0.8602326512336731,0.24798989295959473,-0.2542152404785156,0.8602326512336731,0.24798989295959473,0,0,0,10.0048134,10.0005911,2.607548334749501,359,987.9,1.7660000324249268,,0,0.117,0.9139999999999999,0.11348205625606209,0.105,-0.17069612174213789,0.8294288697502841,0.5154910304573462,classic,0,0,0,none,0,0,0,1.6289090118201202,-0.17069612174213789,0.2833407622218246,0
sensor,1768475000724,599.9794626574039,0,-0.24748513102531433,0.8464664816856384,0.5163843035697937,-0.24748513102531433,0.8464664816856384,0.5163843035697937,0,0,0,10.0048618,10.0005960,2.604560768209997,357,988.4,1.7829999923706055,,0,0.422,0.758,0.3576271186440678,0,-0.06529419230266405,0.9578527140577608,0.4403316052080529,classic,0,0,0,none,0,0,0,2.036972891475928,-0.06529419230266405,0.22782047311047907,0
sensor,1768475002749,605.1739056518771,0,-0.13256821036338806,0.8669627904891968,0.4928288459777832,-0.13256821036338806,0.8669627904891968,0.4928288459777832,0,0,0,10.0049084,10.0005993,2.605836174034188,1,988.4,1.7999999523162842,,0,0.35,0.8150000000000001,0.3004291845493562,0,-0.08131745381196007,0.9404520743047167,0.45202570678879195,classic,0,0,0,none,0,0,0,1.182527062247426,-0.08131745381196007,0.09894374640874537,0
sensor,1768475004731,610.3667111223612,0,-0.15560360252857208,0.8595137000083923,0.4269500970840454,-0.15560360252857208,0.8595137000083923,0.4269500970840454,0,0,0,10.0049551,10.0005993,2.6094935857106303,358,988.4,1.75,,0,0.153,1,0.1326973113616652,0,-0.03777140783140002,0.9919511275646867,0.3477070845067754,classic,0,0,0,none,0,0,0,2.208007573994967,-0.03777140783140002,0.1951497774471914,0
sensor,1768475006770,615.7836674951448,0,-0.24646033346652985,0.7707065939903259,0.5550366640090942,-0.24646033346652985,0.7707065939903259,0.5550366640090942,0,0,0,10.0050034,10.0006058,2.611612735005706,3,988.4,1.715999960899353,,0,1.112,0.052999999999999936,0.9545064377682404,0,-0.05278742189226067,0.9730750560513928,0.368364117078902,classic,0,0,0,none,0,0,0,2.7432597775517733,-0.05278742189226067,0.3383052975847417,0
sensor,1768475008753,620.9796586282215,0,-0.02263770066201687,0.9058139324188232,0.22801364958286285,-0.02263770066201687,0.9058139324188232,0.22801364958286285,0,0,0,10.0050501,10.0006074,2.616524353155256,6,988.1,1.7000000476837158,,0,0.524,0.6019999999999999,0.4653641207815276,0,-0.0680649048313289,0.9561492620113101,0.38556710126856103,classic,0,0,0,none,0,0,0,1.9074967763699984,-0.0680649048313289,0.1723855893521256,0
sensor,1768475010723,626.1724617023694,0,-0.18833649158477783,0.8529977202415466,0.4511173665523529,-0.18833649158477783,0.8529977202415466,0.4511173665523529,0,0,0,10.0050968,10.0006074,2.6203178155059934,2,987.9,1.7000000476837158,,0,0.361,0.7669999999999999,0.3200354609929078,0,-0.08441687218726907,0.9401456888818502,0.40442927861256595,classic,0,0,0,none,0,0,0,1.5401539026155195,-0.08441687218726907,0.14415659891699575,0
sensor,1768475012756,631.3573371171537,0,-0.19711624085903168,0.8695170879364014,0.4672390818595886,-0.19711624085903168,0.8695170879364014,0.4672390818595886,0,0,0,10.0051434,10.0006091,2.617527817792045,2,987.8000000000001,1.715999960899353,,0,1.123,0,1,0,-0.09214275683363338,0.9250512339816339,0.4270467069683375,classic,0,0,0,none,0,0,0,2.3801922729990825,-0.09214275683363338,0.12600506560640096,0
sensor,1768475014761,636.3896359091688,0,0.03905003145337105,0.9064258337020874,0.42939743399620056,0.03905003145337105,0.9064258337020874,0.42939743399620056,0,0,0,10.0051884,10.0006140,2.6132329278455413,3,987.6,1.7330000400543213,,0,0.174,0.9910000000000001,0.14935622317596564,0,-0.04158480639999285,0.9181649234041357,0.39260036832807726,classic,0,0,0,none,0,0,0,2.3202714067230334,-0.04158480639999285,0.08985738130774608,0
sensor,1768475016739,641.7837519029981,0,-0.2861374616622925,0.8283104300498962,0.5309611558914185,-0.2861374616622925,0.8283104300498962,0.5309611558914185,0,0,0,10.0052368,10.0006107,2.6072986968845773,4,986.7,1.7330000400543213,,0,0.117,0.9750000000000001,0.10714285714285714,0.059,-0.17193329854646414,0.8319880514860096,0.5337237107397761,classic,0,0,0,none,0,0,0,0.905463393046489,-0.17193329854646414,0.1148711073792134,0
sensor,1768475018742,646.968265279143,0,-0.02947489731013775,0.8899063467979431,0.41226616501808167,-0.02947489731013775,0.8899063467979431,0.41226616501808167,0,0,0,10.0052834,10.0006091,2.5956120751432925,3,986.4,1.7330000400543213,,0,0.272,0.049000000000000044,0.8473520249221183,0.826,-0.1687133905230866,0.8383186113812233,0.5254398267627398,classic,0,0,0,none,0,0,0,1.2928132836941837,-0.1687133905230866,0.1876382990214076,0
sensor,1768475020732,651.4160683077449,0,-0.16101829707622528,0.830757737159729,0.5651318430900574,-0.16101829707622528,0.830757737159729,0.5651318430900574,0,0,0,10.0053234,10.0006091,2.5802564782307176,357,986.9,1.7330000400543213,,0,0.641,0.5249999999999999,0.5497427101200687,0,-0.02371249773775275,0.9487356742677602,0.44759779182440185,classic,0,0,0,none,0,0,0,2.0330212497562314,-0.02371249773775275,0.21692235030333057,0
sensor,1768475022765,657.3650022165081,0,-0.24167275428771973,0.9016382098197937,0.26308679580688477,-0.24167275428771973,0.9016382098197937,0.26308679580688477,0,0,0,10.0053768,10.0006058,2.5672553439495926,2,986.5,1.7330000400543213,,0,0.233,0.9189999999999999,0.20225694444444448,0,-0.13239180583575477,0.8262103826258909,0.4301519078494647,classic,0,0,0,none,0,0,0,1.3237020068972285,-0.13239180583575477,0.21447913048418313,0
sensor,1768475024748,662.3819928262916,0,0.0008106744498945773,0.9081541895866394,0.50690096616745,0.0008106744498945773,0.9081541895866394,0.50690096616745,0,0,0,10.0054218,10.0006091,2.5537433014713757,357,986.3000000000001,1.715999960899353,,0,0.933,0,1,0.221,-0.13513871807301103,0.8317359486990941,0.43502727136666786,classic,0,0,0,none,0,0,0,1.4116373135228217,-0.13513871807301103,0.17258307397687478,0
sensor,1768475026734,668.1629534404694,0,-0.16998159885406494,0.7787522077560425,0.547480583190918,-0.16998159885406494,0.7787522077560425,0.547480583190918,0,0,0,10.0054734,10.0006155,2.5407453371086195,1,986.1,1.7000000476837158,,0,0.116,0.834,0.12210526315789474,0.219,-0.1357804079084763,0.8364644337897512,0.44116748728962524,classic,0,0,0,none,0,0,0,1.2436129761845385,-0.1357804079084763,0.12634127984524485,0
sensor,1768475028769,673.3684922233666,0,-0.14377999305725098,0.9975883364677429,0.2850055992603302,-0.14377999305725098,0.9975883364677429,0.2850055992603302,0,0,0,10.0055201,10.0006189,2.533887448641087,359,986.3000000000001,1.7000000476837158,,0,0.113,0.8600000000000001,0.11613566289825282,0.186,-0.06073831086929663,0.9120923922659577,0.3207809691055744,classic,0,0,0,none,0,0,0,1.8315097152277442,-0.06073831086929663,0.125065491969236,0
sensor,1768475030745,678.9539230663858,0,-0.1472521275281906,0.8445238471031189,0.5155736207962036,-0.1472521275281906,0.8445238471031189,0.5155736207962036,0,0,0,10.0055701,10.0006140,2.5350450773998303,354,986.8000000000001,1.7000000476837158,,0,0,1.172,0,0,-0.11467471735273588,0.8695399119054726,0.5068628182793783,classic,0,0,0,none,0,0,0,0.8666087670884192,-0.11467471735273588,0.042198720768126516,0
sensor,1768475032741,683.7717125486599,0,-0.148475781083107,0.9248877167701721,0.46488356590270996,-0.148475781083107,0.9248877167701721,0.46488356590270996,0,0,0,10.0056134,10.0006155,2.537820603852249,358,987.4,1.7000000476837158,,0,0.231,0.8170000000000001,0.22041984732824427,0.117,-0.12245909358938323,0.8676261833440637,0.5039103916018293,classic,0,0,0,none,0,0,0,1.452925623999703,-0.12245909358938323,0.07439117203139767,0
sensor,1768475034756,689.1800754599752,0,-0.23035389184951782,0.8263831734657288,0.5107707381248474,-0.23035389184951782,0.8263831734657288,0.5107707381248474,0,0,0,10.0056618,10.0006204,2.5520653141879923,2,987.9,1.7000000476837158,,0,0.398,0.799,0.33249791144527985,0,-0.12156712465961204,0.8692194520365033,0.49606860209056647,classic,0,0,0,none,0,0,0,1.093355373001579,-0.12156712465961204,0.11842957947748536,0
sensor,1768475036733,693.8089579403835,0,-0.14642615616321564,0.8383138179779053,0.481311172246933,-0.14642615616321564,0.8383138179779053,0.481311172246933,0,0,0,10.0057034,10.0006189,2.5731504883737597,358,987.8000000000001,1.7000000476837158,,0,0.296,0.851,0.25806451612903225,0,-0.1310379343043986,0.8668380261718511,0.49903230682302424,classic,0,0,0,none,0,0,0,0.5915336321110471,-0.1310379343043986,0.037124306344962,0
sensor,1768475038760,698.8160327045457,0,-0.2085268646478653,0.7880367040634155,0.3979952335357666,-0.2085268646478653,0.7880367040634155,0.3979952335357666,0,0,0,10.0057484,10.0006172,2.590232883441573,359,987.6,1.7000000476837158,,0,0.876,0.23300000000000004,0.7899008115419297,0.056,-0.13309821805882896,0.8674513578867137,0.49543504651467607,classic,0,0,0,none,0,0,0,1.3811027535132316,-0.13309821805882896,0.1473336844954275,0
sensor,1768475040753,703.2675537566914,0,-0.19486777484416962,0.7964035272598267,0.515466570854187,-0.19486777484416962,0.7964035272598267,0.515466570854187,0,0,0,10.0057884,10.0006155,2.6002083659191166,5,987.4,1.6829999685287476,,0,0.111,1.052,0.09544282029234738,0,-0.13393538843728175,0.8699742008666539,0.49109394432668907,classic,0,0,0,none,0,0,0,1.002468620993932,-0.13393538843728175,0.09908255520366706,0
sensor,1768475042765,708.2837674006639,0,-0.03793344274163246,0.949055016040802,0.2858315408229828,-0.03793344274163246,0.949055016040802,0.2858315408229828,0,0,0,10.0058334,10.0006123,2.6072161250678194,4,987.4,1.6829999685287476,,0,0.098,1.0299999999999998,0.08687943262411349,0,-0.13875571810543427,0.8699277509072614,0.4948868087957769,classic,0,0,0,none,0,0,0,1.183195078825049,-0.13875571810543427,0.2464471626923626,0
sensor,1768475044729,713.50406298196,0,-0.1483687162399292,0.818123459815979,0.37546461820602417,-0.1483687162399292,0.818123459815979,0.37546461820602417,0,0,0,10.0058801,10.0006074,2.6058225030813493,356,987.5,1.6829999685287476,,0,0.057,1.038,0.052054794520547946,0.052,-0.06819979496601238,0.967548634634657,0.5308592405472545,classic,0,0,0,none,0,0,0,1.8134102170684487,-0.06819979496601238,0.23116108243946368,0
sensor,1768475046732,719.0667810705093,0,-0.1905849575996399,0.796709418296814,0.584909200668335,-0.1905849575996399,0.796709418296814,0.584909200668335,0,0,0,10.0059301,10.0006091,2.5982219673038154,354,987.9,1.7000000476837158,,0,0.039,0.5840000000000002,0.0626003210272873,0.578,0.017893280369616096,1.0301136061372154,0.2950995480544045,classic,0,0,0,none,0,0,0,3.8375046739671577,0.017893280369616096,0.4286762938646155,0
sensor,1768475048731,724.4490952497581,0,0.2140333503484726,1.0272620916366577,-0.0030591487884521484,0.2140333503484726,1.0272620916366577,-0.0030591487884521484,0,0,0,10.0059784,10.0006123,2.589049274866076,1,988.9,1.7000000476837158,,0,0,1.165,0,0,-0.006746324940605369,0.9707397454101722,0.28396938230299845,classic,0,0,0,none,0,0,0,1.7203383357111433,-0.006746324940605369,0.5235744850899152,0
sensor,1768475050734,729.2783872008148,0,-0.1607123762369156,0.8494185209274292,0.4855939745903015,-0.1607123762369156,0.8494185209274292,0.4855939745903015,0,0,0,10.0060218,10.0006140,2.580759424444197,358,989.1,1.7000000476837158,,0,0.214,0.9530000000000001,0.18337617823479005,0,-0.02900190507929789,0.9507741763743848,0.3199339145917575,classic,0,0,0,none,0,0,0,2.1901912059917983,-0.02900190507929789,0.2358361058101188,0
sensor,1768475052748,734.2821575088792,0,-0.15581774711608887,0.8458545804023743,0.5669673681259155,-0.15581774711608887,0.8458545804023743,0.5669673681259155,0,0,0,10.0060668,10.0006140,2.5719334514208385,354,989.1,1.7000000476837158,,0,0.308,0.798,0.27848101265822783,0.059,-0.04993372460685167,0.9392702143642497,0.3410462460560845,classic,0,0,0,none,0,0,0,3.1129329881972785,-0.04993372460685167,0.26775623610517457,0
sensor,1768475054746,739.3144558029385,0,-0.1956784427165985,0.8111791610717773,0.583685576915741,-0.1956784427165985,0.8111791610717773,0.583685576915741,0,0,0,10.0061118,10.0006091,2.562936954161788,359,988.9,1.7000000476837158,,0,0,1.127,0,0,0.039046389856986406,1.0668621861491983,0.3153524061876659,classic,0,0,0,none,0,0,0,2.746982893739718,0.039046389856986406,0.4409211965654272,0
sensor,1768475056761,744.1326334506382,0,-0.23850654065608978,0.8561486601829529,0.5162772536277771,-0.23850654065608978,0.8561486601829529,0.5162772536277771,0,0,0,10.0061551,10.0006074,2.5577484128234467,356,988.8000000000001,1.7000000476837158,,0,0.407,0.7549999999999999,0.3502581755593804,0,0.0011455670830443116,1.0318426990633773,0.3490548148311275,classic,0,0,0,none,0,0,0,3.1798170575440547,0.0011455670830443116,0.3426898002030081,0
sensor,1768475058743,749.3374278024384,0,-0.05862858518958092,0.9100967049598694,0.5997002124786377,-0.05862858518958092,0.9100967049598694,0.5997002124786377,0,0,0,10.0062018,10.0006042,2.5487576072455456,357,989,1.7000000476837158,,0,0.409,0.6869999999999998,0.37317518248175185,0.058,-0.02226791469793558,1.0082221901566861,0.3679161603708516,classic,0,0,0,none,0,0,0,2.8038720733223674,-0.02226791469793558,0.2555898759882259,0
sensor,1768475060784,754.3445070653659,0,-0.2075173556804657,0.8282186388969421,0.5537059307098389,-0.2075173556804657,0.8282186388969421,0.5537059307098389,0,0,0,10.0062468,10.0006026,2.5413713783492495,352,988.9,1.7000000476837158,,0,0.058,0.9869999999999999,0.055502392344497616,0.099,0.054947666767365906,1.0365516931015797,0.4721882666774624,classic,0,0,0,none,0,0,0,3.459881408102246,0.054947666767365906,0.3466035427402226,0
sensor,1768475062766,759.7418068781831,0,-0.09983532130718231,0.9159091114997864,0.3750516474246979,-0.09983532130718231,0.9159091114997864,0.3750516474246979,0,0,0,10.0062951,10.0005977,2.5404482558773163,355,987.9,1.7000000476837158,,0,0,1.05,0,0.117,0.020190168287550242,1.0094323002361787,0.47656525006981776,classic,0,0,0,none,0,0,0,2.1966420040123125,0.020190168287550242,0.18383367437363238,0
sensor,1768475064729,764.3822086379315,0,-0.17050166428089142,0.8224062323570251,0.49466437101364136,-0.17050166428089142,0.8224062323570251,0.49466437101364136,0,0,0,10.0063368,10.0005960,2.540586177679108,353,987.7,1.7000000476837158,,0,0.128,0.9989999999999999,0.11357586512866018,0.058,-0.007501353406001621,0.9865412725704157,0.4768567678992657,classic,0,0,0,none,0,0,0,2.3853198100991957,-0.007501353406001621,0.2331712949884416,0
sensor,1768475066723,769.1999911313169,0,-0.2724630832672119,0.7903769612312317,0.5639999508857727,-0.2724630832672119,0.7903769612312317,0.5639999508857727,0,0,0,10.0063801,10.0005944,2.5375643288309404,351,987.5,1.7000000476837158,,0,0.15,1.0170000000000001,0.12853470437017994,0,-0.027411034113679754,0.9691464883018793,0.47733719805908564,classic,0,0,0,none,0,0,0,2.307564908856848,-0.027411034113679754,0.31705234930226195,0
sensor,1768475068751,774.0979262082229,0,0.04619314521551132,0.9729164242744446,0.1549917608499527,0.04619314521551132,0.9729164242744446,0.1549917608499527,0,0,0,10.0064234,10.0005862,2.537090660863254,356,987.3000000000001,1.7000000476837158,,0,0.174,0.9910000000000001,0.14935622317596564,0,-0.04616969768078344,0.9521513427224068,0.4796843151552928,classic,0,0,0,none,0,0,0,1.623266443365463,-0.04616969768078344,0.3399115299111459,0
sensor,1768475070793,779.1141430981719,0,-0.17671172320842743,0.862267017364502,0.4799804389476776,-0.17671172320842743,0.862267017364502,0.4799804389476776,0,0,0,10.0064684,10.0005830,2.535848239841452,354,987.4,1.7000000476837158,,0,1.115,0,1,0.059,-0.06453675814299877,0.9353037177828804,0.4823015728750629,classic,0,0,0,none,0,0,0,1.844901846034163,-0.06453675814299877,0.13454944444073744,0
sensor,1768475072729,784.1303611675464,0,-0.24197867512702942,0.8032253980636597,0.5373854041099548,-0.24197867512702942,0.8032253980636597,0.5373854041099548,0,0,0,10.0065134,10.0005798,2.5264818471524597,353,987.9,1.7000000476837158,,0,0.117,0.642,0.1541501976284585,0.402,-0.011824847343626158,0.9729365534432605,0.3574896135069269,classic,0,0,0,none,0,0,0,3.075071262134826,-0.011824847343626158,0.3395366332301122,0
sensor,1768475074736,789.5152666512847,0,0.16233372688293457,1.0823267698287964,0.2965385615825653,0.16233372688293457,1.0823267698287964,0.2965385615825653,0,0,0,10.0065618,10.0005781,2.5187880493588786,359,987.4,1.7000000476837158,,0,0.409,0.758,0.35047129391602394,0,-0.03184892230833921,0.9567293204174631,0.37334373122069064,classic,0,0,0,none,0,0,0,1.7932886677509332,-0.03184892230833921,0.24490599135405208,0
sensor,1768475076733,794.33344705614,0,-0.12328369915485382,0.8775627017021179,0.5363758206367493,-0.12328369915485382,0.8775627017021179,0.5363758206367493,0,0,0,10.0066051,10.0005798,2.514324886943088,357,986.9,1.7000000476837158,,0,0.132,1.049,0.1117696867061812,0,-0.05406139108404687,0.9378197390926084,0.39597240394214,classic,0,0,0,none,0,0,0,2.1944017710378336,-0.05406139108404687,0.16858006948188825,0
sensor,1768475078761,798.6077305348812,0,-0.14449889957904816,0.810567319393158,0.48926496505737305,-0.14449889957904816,0.810567319393158,0.48926496505737305,0,0,0,10.0066434,10.0005765,2.5070451616791036,355,986.9,1.715999960899353,,0,1.108,0,1,0.059,-0.06708580886083142,0.9262033800013163,0.40829525196116,classic,0,0,0,none,0,0,0,2.200096187604523,-0.06708580886083142,0.16180773296513232,0
sensor,1768475080788,803.8280195493345,0,-0.15938164293766022,0.8775627017021179,0.5370794534683228,-0.15938164293766022,0.8775627017021179,0.5370794534683228,0,0,0,10.0066901,10.0005716,2.500287357186293,351,987.1,1.7330000400543213,,0,0.76,0.395,0.658008658008658,0,-0.07480229045704352,0.9166905804976995,0.41933154822206414,classic,0,0,0,none,0,0,0,1.6403017832752267,-0.07480229045704352,0.1509185931621428,0
sensor,1768475082745,809.4134512491173,0,-0.08545732498168945,0.9044831991195679,0.49446550011634827,-0.08545732498168945,0.9044831991195679,0.49446550011634827,0,0,0,10.0067401,10.0005667,2.500757314608086,356,987,1.7330000400543213,,0,0.305,0.855,0.2629310344827586,0,-0.09006671013861352,0.9065275907986644,0.4365868465431355,classic,0,0,0,none,0,0,0,1.6285422314344413,-0.09006671013861352,0.05838983647883904,0
sensor,1768475084729,813.8933270003702,0,-0.1544870138168335,0.8087318539619446,0.47091004252433777,-0.1544870138168335,0.8087318539619446,0.47091004252433777,0,0,0,10.0067801,10.0005618,2.501369742202451,356,986.9,1.715999960899353,,0,0.174,0.9950000000000001,0.14884516680923865,0,-0.09488768053953689,0.8993827500430482,0.447390215373995,classic,0,0,0,none,0,0,0,1.9249431021885184,-0.09488768053953689,0.11156615368426094,0
sensor,1768475086748,818.5333150012876,0,-0.2374970018863678,0.8229110240936279,0.5098530650138855,-0.2374970018863678,0.8229110240936279,0.5098530650138855,0,0,0,10.0068218,10.0005602,2.50028607369682,356,986.8000000000001,1.7000000476837158,,0,0,1.148,0,0,-0.09844029051443531,0.8957854783724604,0.4520801228779645,classic,0,0,0,none,0,0,0,1.5474639252306497,-0.09844029051443531,0.16812832168996408,0
sensor,1768475088731,823.7149943230821,0,-0.12042339146137238,0.9563969373703003,0.3974904716014862,-0.12042339146137238,0.9563969373703003,0.3974904716014862,0,0,0,10.0068684,10.0005602,2.5025035418336476,3,986.7,1.7000000476837158,,0,0.341,0.835,0.28996598639455784,0,-0.1132226375434606,0.888753242331445,0.45746169570096284,classic,0,0,0,none,0,0,0,1.3826109836490528,-0.1132226375434606,0.09114235941116507,0
sensor,1768475090803,828.7187666731274,0,-0.08432543277740479,0.8834821581840515,0.5131263136863708,-0.08432543277740479,0.8834821581840515,0.5131263136863708,0,0,0,10.0069134,10.0005602,2.503538218166297,359,986.4,1.715999960899353,,0,0.556,0.44899999999999995,0.5532338308457713,0.16,-0.12224304905657704,0.885296665084496,0.46261474505756817,classic,0,0,0,none,0,0,0,1.0348603360018354,-0.12224304905657704,0.06350340647717057,0
sensor,1768475092753,833.9390621951644,0,-0.2071043699979782,0.764481246471405,0.6049007773399353,-0.2071043699979782,0.764481246471405,0.6049007773399353,0,0,0,10.0069601,10.0005554,2.4995445698796965,351,986.4,1.715999960899353,,0,0.175,0.952,0.15527950310559005,0,-0.08805301227645852,0.903384469412015,0.6058691370328754,classic,0,0,0,none,0,0,0,1.930272479697353,-0.08805301227645852,0.18386266202529825,0
sensor,1768475094740,839.5244940211958,0,0.012037750333547592,0.9711726903915405,0.34159982204437256,0.012037750333547592,0.9711726903915405,0.34159982204437256,0,0,0,10.0070101,10.0005505,2.4971256596052496,358,986.7,1.715999960899353,,0,0.972,0,1,0.194,-0.09126271064056553,0.9498596257122264,0.41865961746058017,classic,0,0,0,none,0,0,0,2.3276260666266015,-0.09126271064056553,0.13128353597110726,0
sensor,1768475096756,844.3529695038559,0,-0.15774500370025635,0.866243839263916,0.543916642665863,-0.15774500370025635,0.866243839263916,0.543916642665863,0,0,0,10.0070534,10.0005471,2.4990410157341527,355,986.9,1.7000000476837158,,0,1.046,0,1,0.129,-0.105049626446977,0.9371597566547163,0.430333719576166,classic,0,0,0,none,0,0,0,1.4651870396163895,-0.105049626446977,0.14462220951886434,0
sensor,1768475098727,849.3691854346539,0,-0.14561548829078674,0.8563628196716309,0.48498213291168213,-0.14561548829078674,0.8563628196716309,0.48498213291168213,0,0,0,10.0070984,10.0005439,2.5007333335465916,0,986.6,1.715999960899353,,0,0.29,0.7649999999999999,0.27488151658767773,0.109,-0.11356926250834698,0.9261928221088107,0.4381548940016041,classic,0,0,0,none,0,0,0,2.163030304666695,-0.11356926250834698,0.09042981369261954,0
sensor,1768475100819,854.4014835104374,0,-0.22056461870670319,0.8648213148117065,0.32437682151794434,-0.22056461870670319,0.8648213148117065,0.32437682151794434,0,0,0,10.0071434,10.0005390,2.513245304932367,353,986.9,1.7330000400543213,,0,0,0.933,0,0.234,-0.1138772392342556,0.9192973803176295,0.43935533178828085,classic,0,0,0,none,0,0,0,1.8632862899372273,-0.1138772392342556,0.16687623274243163,0
sensor,1768475102753,860.1502551647309,0,-0.1664176881313324,0.8651272654533386,0.5301504731178284,-0.1664176881313324,0.8651272654533386,0.5301504731178284,0,0,0,10.0071951,10.0005390,2.534178336964177,356,986.3000000000001,1.7330000400543213,,0,0.852,0.06700000000000006,0.927094668117519,0.24,-0.12545800147371858,0.9053382155256424,0.4507900803591931,classic,0,0,0,none,0,0,0,1.1482906421950516,-0.12545800147371858,0.09843444284140901,0
sensor,1768475104786,865.0180959580056,0,-0.18110160529613495,0.7929313778877258,0.40675970911979675,-0.18110160529613495,0.7929313778877258,0.40675970911979675,0,0,0,10.0072384,10.0005325,2.551231784180318,353,986.4,1.7330000400543213,,0,0.874,0.05699999999999994,0.9387755102040817,0.235,-0.12762325432791558,0.8994841475415865,0.45669259137253326,classic,0,0,0,none,0,0,0,1.5199827495740652,-0.12762325432791558,0.12990399561919078,0
sensor,1768475106744,870.4115009325301,0,-0.1958925873041153,0.8447380065917969,0.5545165538787842,-0.1958925873041153,0.8447380065917969,0.5545165538787842,0,0,0,10.0072868,10.0005293,2.563730857687879,358,985.4,1.715999960899353,,0,0.152,1.012,0.13058419243986255,0,-0.1107044661675345,0.8740906627350296,0.27378213174194144,classic,0,0,0,none,0,0,0,2.467691100523681,-0.1107044661675345,0.296321240883936,0
sensor,1768475108730,874.6741593125682,0,-0.021108126267790794,0.8250524401664734,0.3697440028190613,-0.021108126267790794,0.8250524401664734,0.3697440028190613,0,0,0,10.0073251,10.0005309,2.5753800308746633,357,985.3000000000001,1.715999960899353,,0,0.64,0.527,0.5484147386461011,0,-0.12104931579856681,0.8705720427540542,0.3093588595107085,classic,0,0,0,none,0,0,0,1.5249148680646523,-0.12104931579856681,0.12595591859409058,0
sensor,1768475110839,879.9162209198925,0,-0.15938164293766022,0.8870460987091064,0.36434462666511536,-0.15938164293766022,0.8870460987091064,0.36434462666511536,0,0,0,10.0073718,10.0005244,2.5763667919514877,353,985.7,1.7000000476837158,,0,1.167,0,1,0,-0.12956686461995526,0.8694640737844408,0.33418391080855686,classic,0,0,0,none,0,0,0,1.4628120317524784,-0.12956686461995526,0.04614058626340045,0
sensor,1768475112793,884.5971727529803,0,-0.21455340087413788,0.8186282515525818,0.5041477084159851,-0.21455340087413788,0.8186282515525818,0.5041477084159851,0,0,0,10.0074134,10.0005178,2.5697170551605755,351,985.8000000000001,1.7000000476837158,,0,0.156,0.901,0.14758751182592242,0.07,-0.13699815130319176,0.868971343673858,0.3570273725589009,classic,0,0,0,none,0,0,0,2.3142352880946984,-0.13699815130319176,0.17463634491818697,0
sensor,1768475114723,889.8377845974081,0,-0.16825318336486816,0.893470287322998,0.3315046429634094,-0.16825318336486816,0.893470287322998,0.3315046429634094,0,0,0,10.0074601,10.0005114,2.5610414461608104,352,985.7,1.7000000476837158,,0,0.156,0.9759999999999999,0.13780918727915195,0,-0.07767764132675258,0.9827029005119466,0.2798803883607507,classic,0,0,0,none,0,0,0,1.7441908987471697,-0.07767764132675258,0.1379173233733516,0
sensor,1768475116769,894.7357249873454,0,-0.11471807211637497,0.8975542187690735,0.5048666000366211,-0.11471807211637497,0.8975542187690735,0.5048666000366211,0,0,0,10.0075034,10.0005032,2.548681189508953,349,985.5,1.6829999685287476,,0,0.446,0.7190000000000001,0.3828326180257511,0,-0.09407207646276655,0.9598433844889152,0.31865250489124497,classic,0,0,0,none,0,0,0,2.5825176228502724,-0.09407207646276655,0.19843046301849654,0
sensor,1768475118734,899.8781611022225,0,-0.1481698602437973,1.0054351091384888,0.44694164395332336,-0.1481698602437973,1.0054351091384888,0.44694164395332336,0,0,0,10.0075468,10.0004869,2.532732175613348,345,985.7,1.6829999685287476,,0,0.034,1.132,0.029159519725557467,0,-0.09900917573288791,0.9448614850324081,0.3469266588002315,classic,0,0,0,none,0,0,0,2.5809507491472554,-0.09900917573288791,0.12747955993078092,0
sensor,1768475120762,904.3833828284469,0,-0.19792692363262177,0.835346519947052,0.6214202046394348,-0.19792692363262177,0.835346519947052,0.6214202046394348,0,0,0,10.0075868,10.0004804,2.521231123066455,338,986.7,1.6829999685287476,,0,0.044,0.973,0.043264503441494594,0.13,-0.10761763886777247,0.9337458834703207,0.36803004039279513,classic,0,0,0,none,0,0,0,2.5959668217529632,-0.10761763886777247,0.28787396443929586,0
sensor,1768475122737,909.5856357048066,0,-0.25777915120124817,0.7375607490539551,0.5123003125190735,-0.25777915120124817,0.7375607490539551,0.5123003125190735,0,0,0,10.0076318,10.0004674,2.5151122171151927,336,987.3000000000001,1.7000000476837158,,0,0.933,0.23199999999999998,0.8008583690987124,0,-0.026635528585863915,0.9355429701075428,0.5119168509954362,classic,0,0,0,none,0,0,0,2.445522810276069,-0.026635528585863915,0.30587206381600135,0
sensor,1768475124723,914.7760576282386,0,-0.184971421957016,0.9037796258926392,0.5067021250724792,-0.184971421957016,0.9037796258926392,0.5067021250724792,0,0,0,10.0076718,10.0004430,2.5126828931200245,331,987.4,1.7000000476837158,,0,0,1.165,0,0,-0.05065313113646555,0.9216741550832728,0.511915731223009,classic,0,0,0,none,0,0,0,1.4702499927527055,-0.05065313113646555,0.1362867400603452,0
sensor,1768475126759,919.2175891252814,0,-0.047217957675457,0.9108156561851501,0.5854139924049377,-0.047217957675457,0.9108156561851501,0.5854139924049377,0,0,0,10.0077068,10.0004234,2.5094023605586626,324,988,1.6829999685287476,,0,0.889,0,1,0.271,-0.06923203355664115,0.9123360390875798,0.5044570439387155,classic,0,0,0,none,0,0,0,2.0945238170707907,-0.06923203355664115,0.08433208053051935,0
sensor,1768475128725,924.8114211582796,0,-0.18610331416130066,0.8273009061813354,0.5086293816566467,-0.18610331416130066,0.8273009061813354,0.5086293816566467,0,0,0,10.0077468,10.0003925,2.506828434711597,327,988.6,1.6829999685287476,,0,0.681,0.23299999999999996,0.7450765864332605,0.233,-0.07933799251277021,0.9095967472262801,0.49517167707184406,classic,0,0,0,none,0,0,0,1.5035980066959866,-0.07933799251277021,0.13615234239479018,0
sensor,1768475130771,929.8843601168735,0,0.08993896842002869,1.0292046070098877,0.2854185700416565,0.08993896842002869,1.0292046070098877,0.2854185700416565,0,0,0,10.0077834,10.0003648,2.5042937327216688,320,988.8000000000001,1.6660000085830688,,0,0.278,0.8879999999999999,0.23842195540308753,0,-0.09374176303331908,0.9016045294691526,0.4928567051993986,classic,0,0,0,none,0,0,0,1.3081720416832596,-0.09374176303331908,0.3065754493796419,0
sensor,1768475132733,935.478198217993,0,-0.22321078181266785,0.843101441860199,0.5260665416717529,-0.22321078181266785,0.843101441860199,0.5260665416717529,0,0,0,10.0078234,10.0003338,2.499550238470385,323,989,1.6660000085830688,,0,0.36,0.809,0.30795551753635586,0,-0.10502256855382884,0.8953094190144936,0.49301751218268064,classic,0,0,0,none,0,0,0,1.3380509912295637,-0.10502256855382884,0.13403571001163836,0
sensor,1768475134724,940.4228156757308,0,-0.16294555366039276,0.8325014114379883,0.5941937565803528,-0.16294555366039276,0.8325014114379883,0.5941937565803528,0,0,0,10.0078618,10.0003110,2.4908277919974706,323,989.1,1.649999976158142,,0,0.115,0.8880000000000001,0.11465603190428714,0.174,-0.11285352137395005,0.8917752605707456,0.48933937470918204,classic,0,0,0,none,0,0,0,1.5801245496954461,-0.11285352137395005,0.13110491047343698,0
sensor,1768475136727,945.0998688483439,0,-0.2671707570552826,0.8285245895385742,0.46029484272003174,-0.2671707570552826,0.8285245895385742,0.46029484272003174,0,0,0,10.0078951,10.0002850,2.4800836966148614,319,988.5,1.6330000162124634,,0,0.2,0.966,0.17152658662092626,0,-0.11576939515260509,0.8892259628009581,0.4874155679284212,classic,0,0,0,none,0,0,0,2.3522701634224044,-0.11576939515260509,0.16618680126769014,0
sensor,1768475138752,950.1217036722499,0,-0.04986412450671196,0.8725762963294983,0.48905083537101746,-0.04986412450671196,0.8725762963294983,0.48905083537101746,0,0,0,10.0079284,10.0002540,2.471134003873804,320,988.2,1.6160000562667847,,0,0.176,0.951,0.1561668145519077,0.057,-0.12493353305375172,0.8853185424925659,0.49594472912121595,classic,0,0,0,none,0,0,0,1.3795404020951714,-0.12493353305375172,0.07683879953535253,0
sensor,1768475140737,954.3732584596114,0,-0.1842678189277649,0.8639035820960999,0.5092412233352661,-0.1842678189277649,0.8639035820960999,0.5092412233352661,0,0,0,10.0079568,10.0002280,2.4561504546408512,318,988.1,1.600000023841858,,0,0.679,0.46599999999999997,0.5930131004366812,0,-0.17321775154043287,0.7314319168925348,0.46454672426333415,classic,0,0,0,none,0,0,0,1.3655918502425302,-0.17321775154043287,0.14094897584205918,0
sensor,1768475142757,959.1328217347101,0,0.06057114526629448,1.0141078233718872,0.40054965019226074,0.06057114526629448,1.0141078233718872,0.40054965019226074,0,0,0,10.0079884,10.0001987,2.4396456666766904,319,988.1,1.600000023841858,,0,0.235,0.874,0.21190261496844004,0.058,-0.16191922326397024,0.7532021527889109,0.4707085207098396,classic,0,0,0,none,0,0,0,2.9122252996587044,-0.16191922326397024,0.3517530511281216,0
sensor,1768475144736,963.9317807869403,0,-0.20935283601284027,0.7923195362091064,0.47233259677886963,-0.20935283601284027,0.7923195362091064,0.47233259677886963,0,0,0,10.0080218,10.0001709,2.420297419923775,316,988.6,1.600000023841858,,0,0.233,0.8949999999999999,0.2065602836879433,0.058,-0.16200338422635485,0.767658568959317,0.4789560463699384,classic,0,0,0,none,0,0,0,0.9225873765841278,-0.16200338422635485,0.05406627896208849,0
sensor,1768475146732,968.175080907937,0,-0.25218093395233154,0.8845987915992737,0.44735461473464966,-0.25218093395233154,0.8845987915992737,0.44735461473464966,0,0,0,10.0080501,10.0001449,2.395336937522202,314,988.7,1.6160000562667847,,0,1.18,0,1,0,-0.07132293387704457,0.8322699658706396,0.29589427365107945,classic,0,0,0,none,0,0,0,3.017667647660656,-0.07132293387704457,0.2428506684674622,0
sensor,1768475148740,972.7031357038977,0,-0.19303229451179504,0.8486078977584839,0.5953103303909302,-0.19303229451179504,0.8486078977584839,0.5953103303909302,0,0,0,10.0080751,10.0001123,2.361160908727203,313,988.9,1.6330000162124634,,0,0,1.167,0,0,-0.08177812774599415,0.8392762015294769,0.3240354778891143,classic,0,0,0,none,0,0,0,2.300896505414767,-0.08177812774599415,0.2948247942913746,0
sensor,1768475150761,977.0759354801221,0,-0.12072930485010147,0.8799182176589966,0.3013261556625366,-0.12072930485010147,0.8799182176589966,0.3013261556625366,0,0,0,10.0081018,10.0000830,2.3288365953200576,311,988.6,1.649999976158142,,0,0.88,0.30300000000000005,0.7438715131022823,0,-0.09616369686453581,0.8398417455554179,0.35565616567931707,classic,0,0,0,none,0,0,0,1.5013716374888586,-0.09616369686453581,0.0722035028582216,0
sensor,1768475152726,981.3226619740187,0,-0.20874100923538208,0.8423824310302734,0.4969128370285034,-0.20874100923538208,0.8423824310302734,0.4969128370285034,0,0,0,10.0081268,10.0000536,2.2947524900225678,309,988.2,1.649999976158142,,0,0.589,0.583,0.5025597269624573,0,-0.02848800847038197,0.8798155265647672,0.48388800197671444,classic,0,0,0,none,0,0,0,1.5551888160974194,-0.02848800847038197,0.18548643971162418,0
sensor,1768475154744,986.230752732018,0,-0.2836901545524597,0.8143454194068909,0.558707594871521,-0.2836901545524597,0.8143454194068909,0.558707594871521,0,0,0,10.0081534,10.0000179,2.2636315354384346,308,988.7,1.6660000085830688,,0,0.174,0.5050000000000001,0.25625920471281294,0.468,-0.04620882571107178,0.8776582896872567,0.48098502087364703,classic,0,0,0,none,0,0,0,2.080841836496592,-0.04620882571107178,0.2590679129706851,0
sensor,1768475156729,991.6361163578555,0,0.028648927807807922,0.819347083568573,0.3443530797958374,0.028648927807807922,0.819347083568573,0.3443530797958374,0,0,0,10.0081868,9.9999820,2.2456156198986816,310,988.4,1.6660000085830688,,0,0.249,0.875,0.22153024911032027,0.059,-0.017810125625427983,0.8638840043292425,0.3421401130824055,classic,0,0,0,none,0,0,0,2.164545327781452,-0.017810125625427983,0.06471985833230134,0
sensor,1768475158740,996.2659024958396,0,-0.08738458156585693,0.8273926973342896,0.5736975073814392,-0.08738458156585693,0.8273926973342896,0.5736975073814392,0,0,0,10.0082168,9.9999527,2.2433592375312097,310,988.7,1.6829999685287476,,0,0.144,1.0210000000000001,0.12360515021459226,0,-0.03738930033777176,0.8602932720548905,0.3707930106638794,classic,0,0,0,none,0,0,0,1.6864281355419675,-0.03738930033777176,0.21261023444400798,0
sensor,1768475160750,1000.7666489010699,0,-0.11543697863817215,0.9469136595726013,0.521783709526062,-0.11543697863817215,0.9469136595726013,0.521783709526062,0,0,0,10.0082434,9.9999217,2.248179874443083,310,988.4,1.6829999685287476,,0,0.117,0.8740000000000001,0.11806256306760847,0.174,-0.08439504458073728,0.8488509261241574,0.374406545881496,classic,0,0,0,none,0,0,0,2.2956927015592643,-0.08439504458073728,0.18062493673028054,0
sensor,1768475162770,1005.6479503741749,0,-0.1839619129896164,0.8822584748268127,0.4964998662471771,-0.1839619129896164,0.8822584748268127,0.4964998662471771,0,0,0,10.0082734,9.9998892,2.259171961685172,310,988.5,1.6829999685287476,,0,0.29,0.9319999999999999,0.23731587561374795,0,-0.08377219275904411,0.8513081735597542,0.39675407424113485,classic,0,0,0,none,0,0,0,1.6551759371923787,-0.08377219275904411,0.14545156195845518,0
sensor,1768475164753,1011.1930638040607,0,-0.13949717581272125,0.8983649611473083,0.44224584102630615,-0.13949717581272125,0.8983649611473083,0.44224584102630615,0,0,0,10.0083051,9.9998501,2.2896276171968575,314,988.4,1.6660000085830688,,0,0.047,1.119,0.04030874785591767,0,-0.1030330481143227,0.8516937115711071,0.4100573746479179,classic,0,0,0,none,0,0,0,1.1206050646666526,-0.1030330481143227,0.06774745714899272,0
sensor,1768475166730,1016.0938509477684,0,-0.41757380962371826,0.7806947231292725,0.23024682700634003,-0.41757380962371826,0.7806947231292725,0.23024682700634003,0,0,0,10.0083384,9.9998208,2.317705595681588,315,988.4,1.649999976158142,,0,1.166,0,1,0,-0.11353076326146051,0.8528561604656036,0.416362579058993,classic,0,0,0,none,0,0,0,2.595566442001794,-0.11353076326146051,0.3655426016805768,0
sensor,1768475168782,1020.975156524674,0,-0.2731819748878479,0.7997685670852661,0.5510597825050354,-0.2731819748878479,0.7997685670852661,0.5510597825050354,0,0,0,10.0083684,9.9997882,2.3412786178060325,307,988.2,1.649999976158142,,0,0.407,0.4149999999999999,0.49513381995133826,0.36,-0.12079797648954556,0.8576655401378327,0.4214610152081285,classic,0,0,0,none,0,0,0,1.551495238724169,-0.12079797648954556,0.20929822084827318,0
sensor,1768475170740,1026.1296470732818,0,0.06791310012340546,1.0333805084228516,0.05272442847490311,0.06791310012340546,1.0333805084228516,0.05272442847490311,0,0,0,10.0084018,9.9997556,2.3677920796105854,316,988,1.6330000162124634,,0,0.549,0.6389999999999999,0.46212121212121215,0,-0.1262763619005429,0.8600665182040585,0.4316822866181308,classic,0,0,0,none,0,0,0,1.983885234328222,-0.1262763619005429,0.46204530744274247,0
sensor,1768475172762,1031.010956163216,0,-0.23310711979866028,0.8724692463874817,0.5351521968841553,-0.23310711979866028,0.8724692463874817,0.5351521968841553,0,0,0,10.0084318,9.9997231,2.397051213741491,316,988.4,1.6160000562667847,,0,1.166,0,1,0,-0.13541052623431035,0.8582365414357913,0.4442829072087578,classic,0,0,0,none,0,0,0,1.1625870069641417,-0.13541052623431035,0.13485483195572368,0
sensor,1768475174744,1036.0155314855715,0,-0.02886306680738926,0.9231440424919128,0.4739692211151123,-0.02886306680738926,0.9231440424919128,0.4739692211151123,0,0,0,10.0084634,9.9996905,2.4183217896811993,318,988.1,1.6160000562667847,,0,0.239,0.869,0.21570397111913356,0.06,-0.1396286850884188,0.8616633364391151,0.447821720112212,classic,0,0,0,none,0,0,0,1.5179215393555148,-0.1396286850884188,0.13000454028246142,0
sensor,1768475176730,1040.6502723741737,0,-0.21016351878643036,0.8686911463737488,0.41206735372543335,-0.21016351878643036,0.8686911463737488,0.41206735372543335,0,0,0,10.0084918,9.9996595,2.430757776438874,314,987.9,1.6330000162124634,,0,0.117,1.084,0.0974188176519567,0,-0.003502948495637587,0.9401846988858027,0.2650154160141192,classic,0,0,0,none,0,0,0,2.5098068133803126,-0.003502948495637587,0.2648468933566055,0
sensor,1768475178799,1045.917113690646,0,-0.136636883020401,0.8048620820045471,0.00010707020555855706,-0.136636883020401,0.8048620820045471,0.00010707020555855706,0,0,0,10.0085251,9.9996253,2.444024236431028,315,987.8000000000001,1.6330000162124634,,0,0.7,0.4670000000000001,0.5998286203941731,0,-0.10595423098375517,0.8392820056581393,0.37404800568476454,classic,0,0,0,none,0,0,0,1.895592797067245,-0.10595423098375517,0.3786664463300219,0
sensor,1768475180731,1050.9295069975472,0,-0.18741874396800995,0.7897651195526123,0.5491172075271606,-0.18741874396800995,0.7897651195526123,0.5491172075271606,0,0,0,10.0085568,9.9995928,2.447043268336386,317,987.4,1.6160000562667847,,0,0.156,0.917,0.14538676607642126,0.074,-0.11723278572072562,0.8416706673747596,0.3944229248371643,classic,0,0,0,none,0,0,0,1.5994034302831603,-0.11723278572072562,0.17851740433835858,0
sensor,1768475182732,1056.008844270419,0,-0.12236595153808594,0.9728093147277832,0.5456450581550598,-0.12236595153808594,0.9728093147277832,0.5456450581550598,0,0,0,10.0085934,9.9995650,2.445263787303043,318,987,1.600000023841858,,0,0.349,0.701,0.3323809523809524,0.116,-0.12091944982049584,0.8451202359184758,0.4101501487670586,classic,0,0,0,none,0,0,0,1.8938175130408132,-0.12091944982049584,0.18712224793644186,0
sensor,1768475184755,1061.0316816377085,0,-0.20893985033035278,0.8233239650726318,0.5304563641548157,-0.20893985033035278,0.8233239650726318,0.5304563641548157,0,0,0,10.0086268,9.9995342,2.4412849165494697,318,987,1.6160000562667847,,0,0.117,1.05,0.10025706940874037,0,-0.11813954808611875,0.8498558217823812,0.42257888970004603,classic,0,0,0,none,0,0,0,1.6792395837482195,-0.11813954808611875,0.14419986117356737,0
sensor,1768475186740,1066.1110191317946,0,-0.01876787655055523,0.8540072441101074,0.6274313926696777,-0.01876787655055523,0.8540072441101074,0.6274313926696777,0,0,0,10.0086634,9.9995064,2.4420508969851698,315,987.3000000000001,1.6160000562667847,,0,1.05,0.11799999999999988,0.8989726027397261,0,-0.12776694189148635,0.8525138044016634,0.43278527797449234,classic,0,0,0,none,0,0,0,1.401865404158663,-0.12776694189148635,0.22421328181177208,0
sensor,1768475188727,1071.3033589026961,0,-0.0530303455889225,0.8653261065483093,0.27654704451560974,-0.0530303455889225,0.8653261065483093,0.27654704451560974,0,0,0,10.0087001,9.9994771,2.4414276751704067,318,987.4,1.6330000162124634,,0,0.701,0.2920000000000001,0.7059415911379656,0.174,-0.1270206656190247,0.8536455094023192,0.4438564106674297,classic,0,0,0,none,0,0,0,1.730365141672799,-0.1270206656190247,0.1842335454050413,0
sensor,1768475190741,1076.053484692515,0,-0.2772659361362457,0.7840598225593567,0.5761447548866272,-0.2772659361362457,0.7840598225593567,0.5761447548866272,0,0,0,10.0087301,9.9994462,2.4426106596967423,313,987.5,1.6160000562667847,,0,0.699,0.291,0.706060606060606,0.176,-0.12996558147944628,0.8552124467396859,0.44920584640688477,classic,0,0,0,none,0,0,0,1.3440995057210563,-0.12996558147944628,0.20809985524886024,0
sensor,1768475192761,1081.2162869891936,0,-0.10788087546825409,0.9162150621414185,0.19414886832237244,-0.10788087546825409,0.9162150621414185,0.19414886832237244,0,0,0,10.0087651,9.9994152,2.4473886732831263,317,988.2,1.6160000562667847,,0,0.698,0.44700000000000006,0.6096069868995633,0,-0.057071977869190584,0.9309065211888872,0.32669021321051356,classic,0,0,0,none,0,0,0,1.5419920892552514,-0.057071977869190584,0.1434216672998792,0
sensor,1768475194743,1086.261418146291,0,-0.22770772874355316,0.8631846904754639,0.4628491997718811,-0.22770772874355316,0.8631846904754639,0.4628491997718811,0,0,0,10.0088001,9.9993859,2.463692730030018,317,988.2,1.600000023841858,,0,0.212,0.954,0.18181818181818182,0,-0.07937565375525879,0.9183527356238095,0.3543951796434029,classic,0,0,0,none,0,0,0,2.2208783886491554,-0.07937565375525879,0.19281870555954234,0
sensor,1768475196726,1091.0292106864338,0,-0.22443445026874542,0.8388186097145081,0.37627527117729187,-0.22443445026874542,0.8388186097145081,0.37627527117729187,0,0,0,10.0088318,9.9993566,2.473692711817142,319,988.4,1.600000023841858,,0,0,1.13,0,0.036,-0.07289816510749185,0.9393516799145227,0.5324899344199036,classic,0,0,0,none,0,0,0,2.711291670344431,-0.07289816510749185,0.24094031624101406,0
sensor,1768475198767,1096.935672596173,0,-0.2734878957271576,0.7907899618148804,0.5516716241836548,-0.2734878957271576,0.7907899618148804,0.5516716241836548,0,0,0,10.0088684,9.9993175,2.4845506467032297,320,988.3000000000001,1.6160000562667847,,0,0.527,0.6209999999999999,0.4590592334494774,0,-0.08743738061471698,0.9283781935001695,0.5196249752072564,classic,0,0,0,none,0,0,0,1.8259489243359768,-0.08743738061471698,0.23478106140999513,0
sensor,1768475200748,1102.3891317038147,0,-0.10492879897356033,0.7880367040634155,-0.131038635969162,-0.10492879897356033,0.7880367040634155,-0.131038635969162,0,0,0,10.0089068,9.9992865,2.5002324036791794,320,988.6,1.6660000085830688,,0,0.292,0.733,0.28487804878048784,0.118,-0.0989842309034503,0.8796390320447973,0.3217979027552947,classic,0,0,0,none,0,0,0,1.8308554914961477,-0.0989842309034503,0.660066872284884,0
sensor,1768475202753,1107.1432694435823,0,-0.15275859832763672,0.8363713026046753,0.5194434523582458,-0.15275859832763672,0.8363713026046753,0.5194434523582458,0,0,0,10.0089351,9.9992540,2.5151079368339784,315,987.9,1.6829999685287476,,0,0.176,0.6990000000000001,0.20114285714285712,0.292,-0.11357039585108826,0.8762686845599241,0.34971020661202495,classic,0,0,0,none,0,0,0,1.7221821858531117,-0.11357039585108826,0.17960699111551096,0
sensor,1768475204733,1112.5446843783923,0,-0.0775953084230423,0.864515483379364,0.5428000092506409,-0.0775953084230423,0.864515483379364,0.5428000092506409,0,0,0,10.0089701,9.9992198,2.52762338790255,321,987.8000000000001,1.7000000476837158,,0,0.467,0.6409999999999998,0.4214801444043322,0.058,-0.12060765974395866,0.8755704383159819,0.37181113144477246,classic,0,0,0,none,0,0,0,2.432856206191566,-0.12060765974395866,0.17754977287666157,0
sensor,1768475206755,1117.8115392149753,0,-0.1362391859292984,0.8396292924880981,0.4568379521369934,-0.1362391859292984,0.8396292924880981,0.4568379521369934,0,0,0,10.0090034,9.9991856,2.5416199239015933,315,987.6,1.6660000085830688,,0,0.097,0.855,0.10189075630252102,0.195,-0.12177860410294487,0.8773011052413446,0.3817794856211739,classic,0,0,0,none,0,0,0,1.8545184678938869,-0.12177860410294487,0.08564587601844244,0
sensor,1768475208737,1122.7036875231222,0,-0.24044908583164215,0.7955775260925293,0.4498019516468048,-0.24044908583164215,0.7955775260925293,0.4498019516468048,0,0,0,10.0090351,9.9991546,2.5578923499626676,314,987.7,1.649999976158142,,0,1.107,0.05800000000000005,0.9502145922746781,0,-0.1299633984158835,0.8723167603242469,0.4029285993752589,classic,0,0,0,none,0,0,0,1.264995832735383,-0.1299633984158835,0.14316973012591822,0
sensor,1768475210736,1127.2344689013978,0,-0.12940199673175812,0.8429943323135376,0.44082334637641907,-0.12940199673175812,0.8429943323135376,0.44082334637641907,0,0,0,10.0090668,9.9991286,2.5652203313361452,315,987.9,1.6829999685287476,,0,0.191,0.976,0.1636675235646958,0,-0.10682293798701471,0.9138114477665525,0.5938212445863831,classic,0,0,0,none,0,0,0,1.583170454622064,-0.10682293798701471,0.17095248312803163,0
sensor,1768475212741,1132.0625629103913,0,-0.20996467769145966,0.8172057271003723,0.5844045281410217,-0.20996467769145966,0.8172057271003723,0.5844045281410217,0,0,0,10.0091018,9.9991025,2.5645014474509136,318,988.3000000000001,1.7000000476837158,,0,0.233,0.8240000000000001,0.2204351939451277,0.059,-0.1082507083985801,0.9099568051118962,0.5756337648304483,classic,0,0,0,none,0,0,0,1.4091958661548016,-0.1082507083985801,0.1386257948320444,0
sensor,1768475214760,1137.1076934323476,0,0.09931526333093643,1.2482397556304932,0.4803934097290039,0.09931526333093643,1.2482397556304932,0.4803934097290039,0,0,0,10.0091368,9.9990732,2.5624239583337425,316,988.8000000000001,1.715999960899353,,0,0.181,0.46099999999999985,0.28193146417445486,0.524,-0.11117462799158177,0.9020180310159919,0.5611091877356063,classic,0,0,0,none,0,0,0,2.136332103014878,-0.11117462799158177,0.4152232009067708,0
sensor,1768475216751,1142.270505354825,0,-0.12225887924432755,0.8897075057029724,0.633549690246582,-0.12225887924432755,0.8897075057029724,0.633549690246582,0,0,0,10.0091718,9.9990422,2.5602082119791914,317,988,1.649999976158142,,0,0.825,0.2820000000000001,0.7452574525745257,0.058,-0.12309865373477512,0.8948872253455802,0.5488328500180779,classic,0,0,0,none,0,0,0,1.2286439054233234,-0.12309865373477512,0.0853057235661378,0
sensor,1768475218755,1147.6719290575868,0,-0.15765322744846344,0.9026477336883545,0.5620726943016052,-0.15765322744846344,0.9026477336883545,0.5620726943016052,0,0,0,10.0092068,9.9990080,2.553637068382202,317,987.8000000000001,1.6160000562667847,,0,1.108,0,1,0.072,-0.09838700989484722,0.8835299141111899,0.40466014489813906,classic,0,0,0,none,0,0,0,2.1776429004197637,-0.09838700989484722,0.1701335264164146,0
sensor,1768475220744,1152.6765177383961,0,-0.06902968883514404,0.8835892081260681,0.568894624710083,-0.06902968883514404,0.8835892081260681,0.568894624710083,0,0,0,10.0092384,9.9989755,2.5507676676954807,315,987.4,1.6160000562667847,,0,0.234,0.901,0.20616740088105728,0,-0.013262917558726817,0.9204684618001842,0.2427126006276996,classic,0,0,0,none,0,0,0,3.07280052074688,-0.013262917558726817,0.3346367326662764,0
sensor,1768475222732,1157.8236040953745,0,-0.1301208883523941,0.7205365896224976,0.5451403260231018,-0.1301208883523941,0.7205365896224976,0.5451403260231018,0,0,0,10.0092718,9.9989429,2.553349994708798,317,987,1.6160000562667847,,0,0.758,0.3799999999999999,0.6660808435852373,0,-0.0381577880738873,0.9082412116284182,0.28577169856501705,classic,0,0,0,none,0,0,0,2.638522708736008,-0.0381577880738873,0.33478399464028646,0
sensor,1768475224751,1162.453400027997,0,-0.2082209438085556,0.8109803199768066,0.33508384227752686,-0.2082209438085556,0.8109803199768066,0.33508384227752686,0,0,0,10.0093018,9.9989136,2.553793282869721,317,987.2,1.6330000162124634,,0,0,1.17,0,0,-0.056196251670325326,0.9016285947287115,0.31545018351405385,classic,0,0,0,none,0,0,0,2.750902747226864,-0.056196251670325326,0.17897941998628733,0
sensor,1768475226767,1167.7375283610459,0,-0.2596146762371063,0.803026556968689,0.5780720114707947,-0.2596146762371063,0.803026556968689,0.5780720114707947,0,0,0,10.0093368,9.9988810,2.5518199128312413,313,987.8000000000001,1.6160000562667847,,0,0.159,0.9869999999999999,0.1387434554973822,0,-0.074333790601222,0.8952317877467791,0.33988717952159536,classic,0,0,0,none,0,0,0,2.6915760611128854,-0.074333790601222,0.3171213819584017,0
sensor,1768475228730,1172.6188495219153,0,-0.020695142447948456,1.0035078525543213,0.4790627062320709,-0.020695142447948456,1.0035078525543213,0.4790627062320709,0,0,0,10.0093668,9.9988484,2.5508366460314758,319,987.8000000000001,1.6160000562667847,,0,0.133,0.758,0.14927048260381595,0.272,-0.08938828226222983,0.9690558066907026,0.4936336267815716,classic,0,0,0,none,0,0,0,1.7471269841975527,-0.08938828226222983,0.0786107155691965,0
sensor,1768475230771,1177.2576637230827,0,0.013659099116921425,0.9813749194145203,0.5425859093666077,0.013659099116921425,0.9813749194145203,0.5425859093666077,0,0,0,10.0093984,9.9988208,2.550609881238935,316,987.2,1.600000023841858,,0,1.111,5.551115123125783e-17,1,0.06,-0.10259461624405657,0.947104767393817,0.500215995365235,classic,0,0,0,none,0,0,0,1.713200357732003,-0.10259461624405657,0.12903747400452856,0
sensor,1768475232755,1182.2776766330055,0,-0.11216369271278381,0.85013747215271,0.5931689739227295,-0.11216369271278381,0.85013747215271,0.5931689739227295,0,0,0,10.0094301,9.9987882,2.5451881772013643,316,986.7,1.600000023841858,,0,0.2,0.85,0.19047619047619047,0.116,-0.011577863403389151,0.9703638365896833,0.3591701479765807,classic,0,0,0,none,0,0,0,2.552550422542939,-0.011577863403389151,0.28306642533914295,0
sensor,1768475234764,1187.2923076427892,0,-0.267782598733902,0.7869201302528381,0.5955091714859009,-0.267782598733902,0.7869201302528381,0.5955091714859009,0,0,0,10.0094634,9.9987573,2.539792848847863,312,986.5,1.600000023841858,,0,0.234,0.9319999999999999,0.20068610634648373,0,-0.034398765933667384,0.9549707506836115,0.3774382205835021,classic,0,0,0,none,0,0,0,2.693309562389634,-0.034398765933667384,0.3627346675555875,0
sensor,1768475236776,1192.956085815813,0,0.11094003170728683,1.1035419702529907,0.23494262993335724,0.11094003170728683,1.1035419702529907,0.23494262993335724,0,0,0,10.0095001,9.9987214,2.537635898138696,315,986.5,1.600000023841858,,0,0.234,0.933,0.20051413881748073,0,-0.04734533166972869,0.9463416355364161,0.38993252074636947,classic,0,0,0,none,0,0,0,1.8642987645081157,-0.04734533166972869,0.2730046147177864,0
sensor,1768475238743,1198.3739078507544,0,-0.15560360252857208,0.8382067680358887,0.5197493433952332,-0.15560360252857208,0.8382067680358887,0.5197493433952332,0,0,0,10.0095368,9.9986889,2.536827625466826,316,987,1.600000023841858,,0,0.116,1.0319999999999998,0.1010452961672474,0,-0.06978990703617599,0.9293495154598855,0.4128234459471381,classic,0,0,0,none,0,0,0,2.2891491174916268,-0.06978990703617599,0.16546064824501436,0
sensor,1768475240744,1203.419047818279,0,-0.13195638358592987,0.8712455630302429,0.3813687860965729,-0.13195638358592987,0.8712455630302429,0.3813687860965729,0,0,0,10.0095718,9.9986596,2.5294164377636306,317,986.9,1.600000023841858,,0,1.152,0,1,0,0.00776866541160929,1.0254757098086258,0.40687087211053796,classic,0,0,0,none,0,0,0,3.1671375256322536,0.00776866541160929,0.21072092176557966,0
sensor,1768475242775,1209.0788567876527,0,-0.26461637020111084,0.8059785962104797,0.6481265425682068,-0.26461637020111084,0.8059785962104797,0.6481265425682068,0,0,0,10.0096068,9.9986220,2.5228842777068103,314,986.4,1.600000023841858,,0,0,1.028,0,0.118,-0.021599071012098014,1.0011375713611526,0.4125445203150717,classic,0,0,0,none,0,0,0,2.9506054905747194,-0.021599071012098014,0.3926592425647918,0
sensor,1768475244731,1214.2179346449007,0,-0.08677275478839874,0.898976743221283,0.5061820149421692,-0.08677275478839874,0.898976743221283,0.5061820149421692,0,0,0,10.0096401,9.9985895,2.5187325095000483,314,986.3000000000001,1.600000023841858,,0,0.765,0.4009999999999999,0.6560891938250429,0,-0.0393421794148168,0.9809291408472682,0.41887633265247,classic,0,0,0,none,0,0,0,1.8572266717674695,-0.0393421794148168,0.12944215288946453,0
sensor,1768475246767,1219.6156874054018,0,-0.1669224500656128,0.9019441604614258,0.4343991279602051,-0.1669224500656128,0.9019441604614258,0.4343991279602051,0,0,0,10.0096734,9.9985536,2.5182124209528114,311,986.1,1.600000023841858,,0,0.118,1.0060000000000002,0.10498220640569393,0.057,-0.17002688773434751,0.8925349185680378,0.522239405314897,classic,0,0,0,none,0,0,0,1.0043453710674093,-0.17002688773434751,0.08884152484594504,0
sensor,1768475248750,1224.892591163736,0,-0.08668097853660583,0.860431432723999,0.6353852152824402,-0.08668097853660583,0.860431432723999,0.6353852152824402,0,0,0,10.0097084,9.9985211,2.5182400373707017,314,986.1,1.6160000562667847,,0,0.292,0.758,0.27809523809523806,0.117,-0.16832394979807658,0.8885084038100203,0.5148963064423543,classic,0,0,0,none,0,0,0,1.2010201880905633,-0.16832394979807658,0.14897262101580613,0
sensor,1768475250734,1230.0359318967405,0,-0.2777707278728485,0.8234157562255859,0.5315729975700378,-0.2777707278728485,0.8234157562255859,0.5315729975700378,0,0,0,10.0097401,9.9984869,2.5218120965073783,320,986,1.6160000562667847,,0,0.197,0.718,0.21530054644808744,0.193,-0.16861437338440718,0.887028658758642,0.5034817572084012,classic,0,0,0,none,0,0,0,0.9550246836723352,-0.16861437338440718,0.13007537010508038,0
sensor,1768475252774,1235.4806945723021,0,-0.009988120757043362,0.854619026184082,-0.05261735990643501,-0.009988120757043362,0.854619026184082,-0.05261735990643501,0,0,0,10.0097784,9.9984559,2.535153309966893,318,986,1.6330000162124634,,0,0,1.066,0,0.101,-0.026032292244341167,1.001483632071499,0.353547844652596,classic,0,0,0,none,0,0,0,2.7114968786378433,-0.026032292244341167,0.43437181429551464,0
sensor,1768475254757,1240.6240379456144,0,-0.24717921018600464,0.8725762963294983,0.47814494371414185,-0.24717921018600464,0.8725762963294983,0.47814494371414185,0,0,0,10.0098101,9.9984217,2.550351066871286,314,986,1.6160000562667847,,0,0,1.166,0,0,-0.14729485257454797,0.869456974640927,0.3951406425096021,classic,0,0,0,none,0,0,0,1.5730470215072105,-0.14729485257454797,0.13056173477870012,0
sensor,1768475256729,1245.6364448679562,0,-0.15621542930603027,0.9755625128746033,0.6394691467285156,-0.15621542930603027,0.9755625128746033,0.6394691467285156,0,0,0,10.0098418,9.9983892,2.559676338236155,316,985.7,1.6330000162124634,,0,0.175,0.97,0.15283842794759825,0,-0.14594611101110233,0.8673678863855769,0.4082942122389006,classic,0,0,0,none,0,0,0,2.1533259752395564,-0.14594611101110233,0.2567310794115116,0
sensor,1768475258741,1250.775521096602,0,-0.12236595153808594,0.8012981414794922,0.6341615319252014,-0.12236595153808594,0.8012981414794922,0.6341615319252014,0,0,0,10.0098751,9.9983566,2.5640488554610545,312,986.4,1.6330000162124634,,0,1.049,0.1160000000000001,0.9004291845493562,0,-0.032731333736351724,0.9404397036728281,0.51743319514156,classic,0,0,0,none,0,0,0,1.3503826194831083,-0.032731333736351724,0.20355231081999714,0
sensor,1768475260764,1255.795542815352,0,0.03231990709900856,0.8972483277320862,0.5112907886505127,0.03231990709900856,0.8972483277320862,0.5112907886505127,0,0,0,10.0099068,9.9983240,2.5677622513597043,312,986.6,1.649999976158142,,0,0.117,0.9709999999999999,0.10753676470588237,0.058,-0.05543475842695251,0.9265185664531512,0.5146072093725925,classic,0,0,0,none,0,0,0,1.6045699757065381,-0.05543475842695251,0.09303203786578118,0
sensor,1768475262724,1260.9312703863222,0,-0.23433078825473785,0.8301458954811096,0.5203611850738525,-0.23433078825473785,0.8301458954811096,0.5203611850738525,0,0,0,10.0099384,9.9982898,2.5648203121999726,311,986.5,1.649999976158142,,0,0.117,1.049,0.10034305317324187,0,-0.06980936958893302,0.9190805459478628,0.5102752506102634,classic,0,0,0,none,0,0,0,1.6484998849090609,-0.06980936958893302,0.18823343966962874,0
sensor,1768475264764,1266.0870623400804,0,-0.18844355642795563,0.8555368781089783,0.5149617791175842,-0.18844355642795563,0.8555368781089783,0.5149617791175842,0,0,0,10.0099734,9.9982589,2.5616559356517032,313,986.5,1.6660000085830688,,0,0.118,0.4670000000000001,0.20170940170940166,0.581,-0.1169414607099851,0.9100059631759883,0.4350661795764898,classic,0,0,0,none,0,0,0,1.8927525638852007,-0.1169414607099851,0.12086545042219414,0
sensor,1768475266747,1271.6162018798884,0,-0.22994090616703033,0.8318896293640137,0.44785937666893005,-0.22994090616703033,0.8318896293640137,0.44785937666893005,0,0,0,10.0100084,9.9982230,2.5550539345602745,308,986.9,1.6829999685287476,,0,0.045,0.99,0.043478260869565216,0.143,-0.1228059565470132,0.9047366880692393,0.4367809441176407,classic,0,0,0,none,0,0,0,1.512329945950095,-0.1228059565470132,0.13068157041650416,0
sensor,1768475268730,1277.2833871939326,0,0.013047270476818085,0.930180013179779,0.37638238072395325,0.013047270476818085,0.930180013179779,0.37638238072395325,0,0,0,10.0100418,9.9981839,2.554316116158754,312,986.8000000000001,1.6829999685287476,,0,0.233,0.932,0.2,0,-0.130846567617546,0.8960514362182498,0.44712865890215225,classic,0,0,0,none,0,0,0,0.9650104311786165,-0.130846567617546,0.16476047393222887,0
sensor,1768475270768,1282.3052542599264,0,-0.29367828369140625,0.7904840111732483,0.5063961744308472,-0.29367828369140625,0.7904840111732483,0.5063961744308472,0,0,0,10.0100751,9.9981530,2.5540160768355125,315,986.7,1.649999976158142,,0,0.138,0.951,0.12672176308539945,0.057,-0.13785465206986602,0.8918362156318073,0.4535018841692137,classic,0,0,0,none,0,0,0,1.293947831926273,-0.13785465206986602,0.19423545088672436,0
sensor,1768475272723,1287.317665105593,0,-0.1430610865354538,0.8467724323272705,0.5782861709594727,-0.1430610865354538,0.8467724323272705,0.5782861709594727,0,0,0,10.0101068,9.9981204,2.5561093471692335,315,986.7,1.6330000162124634,,0,0.576,0.44799999999999995,0.5625,0.116,-0.13927309606808422,0.8893478374987309,0.4582710167461199,classic,0,0,0,none,0,0,0,1.7508671144362302,-0.13927309606808422,0.12803977200747674,0
sensor,1768475274771,1292.7154234776451,0,-0.22137530148029327,0.8870460987091064,0.3620961308479309,-0.22137530148029327,0.8870460987091064,0.3620961308479309,0,0,0,10.0101401,9.9980846,2.5562359545373616,310,986.8000000000001,1.6330000162124634,,0,0.333,0.8880000000000001,0.2727272727272727,0,-0.10729696416691462,0.8932547407254932,0.3084018251725662,classic,0,0,0,none,0,0,0,2.2765884199559845,-0.10729696416691462,0.12687021261530004,0
sensor,1768475276753,1298.1213668984424,0,-0.015295743942260742,0.9266161918640137,0.4467427730560303,-0.015295743942260742,0.9266161918640137,0.4467427730560303,0,0,0,10.0101718,9.9980471,2.564959684978154,314,986.3000000000001,1.649999976158142,,0,0.174,0.952,0.15452930728241562,0,-0.11731724376697478,0.8855346205565141,0.34211904764017675,classic,0,0,0,none,0,0,0,1.6534582595629848,-0.11731724376697478,0.1525593906153497,0
sensor,1768475278736,1303.38823575772,0,-0.31764671206474304,0.8180163502693176,0.6891191601753235,-0.31764671206474304,0.8180163502693176,0.6891191601753235,0,0,0,10.0102051,9.9980129,2.571273547704071,316,986.6,1.649999976158142,,0,1.066,0,1,0.059,-0.05575393410939607,0.8452083257954606,0.47874229318991907,classic,0,0,0,none,0,0,0,2.132757714693769,-0.05575393410939607,0.33871830402765984,0
sensor,1768475280732,1308.3196089887522,0,-0.189055398106575,0.7670356631278992,0.5896050333976746,-0.189055398106575,0.7670356631278992,0.5896050333976746,0,0,0,10.0102401,9.9979853,2.5783439337944722,318,986.8000000000001,1.6660000085830688,,0,0.12,0.885,0.11940298507462688,0.163,-0.11853777248021617,0.801496153737878,0.3503067855007585,classic,0,0,0,none,0,0,0,2.345979157311367,-0.11853777248021617,0.2531065787612215,0
sensor,1768475282737,1313.466115845993,0,0.007953786291182041,0.918662428855896,0.6699535846710205,0.007953786291182041,0.918662428855896,0.6699535846710205,0,0,0,10.0102734,9.9979526,2.588260079518636,316,987,1.6660000085830688,,0,0.448,0.7170000000000001,0.384549356223176,0,-0.11812476474525448,0.8155615691957325,0.36664292998487064,classic,0,0,0,none,0,0,0,2.80517955292393,-0.11812476474525448,0.3460016182192812,0
sensor,1768475284757,1319.1460035267003,0,-0.032534047961235046,0.8445238471031189,0.49027445912361145,-0.032534047961235046,0.8445238471031189,0.49027445912361145,0,0,0,10.0103118,9.9979184,2.605340057780193,314,987.4,1.6660000085830688,,0,0.351,0.796,0.3060156931124673,0,-0.12523498534605998,0.8204473991677607,0.39223542498678404,classic,0,0,0,none,0,0,0,1.4845130267746922,-0.12523498534605998,0.13774635231472365,0
sensor,1768475286724,1324.1606501559434,0,-0.1597946435213089,0.8224062323570251,0.44928187131881714,-0.1597946435213089,0.8224062323570251,0.44928187131881714,0,0,0,10.0103451,9.9978876,2.61453621946504,314,987.5,1.649999976158142,,0,0.363,0.5650000000000001,0.39116379310344823,0.215,-0.14080131324040063,0.9226557601983366,0.567668695458299,classic,0,0,0,none,0,0,0,2.5428065713346344,-0.14080131324040063,0.15707406009406405,0
sensor,1768475288729,1329.847413262199,0,-0.2725701630115509,0.7964035272598267,0.5561532378196716,-0.2725701630115509,0.7964035272598267,0.5561532378196716,0,0,0,10.0103768,9.9978468,2.618385857700764,310,987,1.649999976158142,,0,0.058,0.6389999999999998,0.08321377331420375,0.451,-0.1427360144681652,0.9164626566438221,0.549996011816066,classic,0,0,0,none,0,0,0,1.4774352824933128,-0.1427360144681652,0.1778326914783067,0
sensor,1768475290742,1334.748221957909,0,0.011823609471321106,1.0201189517974854,0.04343991354107857,0.011823609471321106,1.0201189517974854,0.04343991354107857,0,0,0,10.0104101,9.9978175,2.6254150699026577,313,987.1,1.649999976158142,,0,0.897,0.25,0.7820401046207498,0,-0.09672454621176871,0.9419676121719924,0.3930048241985928,classic,0,0,0,none,0,0,0,2.3871724316927603,-0.09672454621176871,0.5346865584781946,0
sensor,1768475292765,1340.0251316633337,0,-0.21678657829761505,0.9010263085365295,0.5452473759651184,-0.21678657829761505,0.9010263085365295,0.5452473759651184,0,0,0,10.0104451,9.9977849,2.6315465260777415,311,987.4,1.649999976158142,,0,0.854,0.29100000000000004,0.7458515283842795,0,-0.11106219980391957,0.9280184176448009,0.40867831606778415,classic,0,0,0,none,0,0,0,1.8676410521216797,-0.11106219980391957,0.17568496441149237,0
sensor,1768475294747,1345.5702823873642,0,-0.21138718724250793,0.7762131094932556,0.4704970717430115,-0.21138718724250793,0.7762131094932556,0.4704970717430115,0,0,0,10.0104768,9.9977459,2.6322937554676655,312,987.8000000000001,1.649999976158142,,0,0.117,0.875,0.11794354838709678,0.174,-0.11467479246387169,0.9193095404010226,0.41995821313806403,classic,0,0,0,none,0,0,0,1.5950964781962427,-0.11467479246387169,0.1808599947194178,0
sensor,1768475296741,1350.9771175787723,0,-0.1965044140815735,0.8169915676116943,0.563801109790802,-0.1965044140815735,0.8169915676116943,0.563801109790802,0,0,0,10.0105084,9.9977083,2.633547896805209,312,988,1.6660000085830688,,0,0.117,0.992,0.1055004508566276,0.059,-0.09583881399933478,0.9363457163522048,0.27363687833643247,classic,0,0,0,none,0,0,0,2.4940328674413417,-0.09583881399933478,0.3311618899352937,0
sensor,1768475298739,1356.3830667260072,0,0.08891415596008301,1.0779368877410889,0.23881244659423828,0.08891415596008301,1.0779368877410889,0.23881244659423828,0,0,0,10.0105401,9.9976709,2.64118645756854,310,988.1,1.6829999685287476,,0,0.371,0.8160000000000001,0.3125526537489469,0,-0.10707895696772506,0.9252586283306549,0.3080436925020194,classic,0,0,0,none,0,0,0,1.6671691637585402,-0.10707895696772506,0.2592047608054635,0
sensor,1768475300734,1361.6603778938313,0,-0.2251533567905426,0.812096893787384,0.5731773972511292,-0.2251533567905426,0.812096893787384,0.5731773972511292,0,0,0,10.0105718,9.9976350,2.644409031669404,310,988.4,1.6829999685287476,,0,0.989,0.17499999999999993,0.8496563573883162,0,-0.1161992961220323,0.9140016284825635,0.3388172856474769,classic,0,0,0,none,0,0,0,2.131410212468038,-0.1161992961220323,0.27920933686376415,0
sensor,1768475302752,1366.664982888607,0,-0.14683914184570312,0.9174387454986572,0.3656753599643707,-0.14683914184570312,0.9174387454986572,0.3656753599643707,0,0,0,10.0106034,9.9976025,2.6447295045301606,309,988.6,1.6829999685287476,,0,1.089,0.05600000000000005,0.9510917030567685,0,-0.020471369146175502,0.979844373200717,0.338767972612443,classic,0,0,0,none,0,0,0,3.163098113650124,-0.020471369146175502,0.14420371383250868,0
sensor,1768475304721,1371.7046052556261,0,-0.14153151214122772,0.8195459842681885,0.5960292220115662,-0.14153151214122772,0.8195459842681885,0.5960292220115662,0,0,0,10.0106318,9.9975666,2.641841465506174,305,988.7,1.6829999685287476,,0,0.874,0.273,0.7619877942458587,0,-0.035111623992151564,0.9656218362951585,0.35470939823188014,classic,0,0,0,none,0,0,0,2.3752595989840715,-0.035111623992151564,0.30300899931094194,0
sensor,1768475306785,1377.1315585600596,0,-0.08891415596008301,0.879306435585022,0.475498765707016,-0.08891415596008301,0.879306435585022,0.475498765707016,0,0,0,10.0106618,9.9975275,2.640187534021672,306,988.9,1.7000000476837158,,0,0.192,0.9730000000000001,0.1648068669527897,0,-0.10795226064678687,0.9272658640099835,0.5302712155688991,classic,0,0,0,none,0,0,0,1.165350120022478,-0.10795226064678687,0.07562824066360703,0
sensor,1768475308745,1382.5585161804397,0,-0.1777365356683731,0.9041772484779358,0.3377300202846527,-0.1777365356683731,0.9041772484779358,0.3377300202846527,0,0,0,10.0106918,9.9974885,2.63623464889476,311,988.6,1.7000000476837158,,0,0.092,0.9939999999999999,0.0847145488029466,0.112,-0.11393118209243547,0.9159272902619939,0.5225738374292034,classic,0,0,0,none,0,0,0,1.9536634887714883,-0.11393118209243547,0.19688343032793318,0
sensor,1768475310758,1388.3490136172704,0,-0.27593520283699036,0.803531289100647,0.6104990243911743,-0.27593520283699036,0.803531289100647,0.6104990243911743,0,0,0,10.0107251,9.9974478,2.6321963825074923,309,987.7,1.7000000476837158,,0,0.117,0.788,0.1292817679558011,0.232,-0.021327718234464457,0.990624267214857,0.4185286766061312,classic,0,0,0,none,0,0,0,2.9424367405071616,-0.021327718234464457,0.3715622446616702,0
sensor,1768475312731,1393.3816839503688,0,-0.09616433829069138,0.8453498482704163,0.23850654065608978,-0.09616433829069138,0.8453498482704163,0.23850654065608978,0,0,0,10.0107534,9.9974119,2.631490689450194,310,987.1,1.7000000476837158,,0,0.856,0.24200000000000002,0.77959927140255,0.041,-0.03910681889149761,0.9718631526924694,0.42704806836295117,classic,0,0,0,none,0,0,0,1.6968993276006563,-0.03910681889149761,0.23528984994651803,0
sensor,1768475314759,1398.658995237741,0,-0.15815798938274384,0.8531966209411621,0.5438095331192017,-0.15815798938274384,0.8531966209411621,0.5438095331192017,0,0,0,10.0107851,9.9973761,2.6357518281338668,309,986.9,1.7000000476837158,,0,0.699,0.46699999999999997,0.5994854202401372,0,-0.06274637158901153,0.9534283530456695,0.44128595481696925,classic,0,0,0,none,0,0,0,1.679204181430317,-0.06274637158901153,0.17308873197647728,0
sensor,1768475316740,1403.5403353035088,0,-0.19843168556690216,0.9227463006973267,0.5674720406532288,-0.19843168556690216,0.9227463006973267,0.5674720406532288,0,0,0,10.0108151,9.9973435,2.639559571189419,305,987.3000000000001,1.7000000476837158,,0,0.116,0.8759999999999999,0.11693548387096776,0.175,-0.07722388627157481,0.9403723180279763,0.4483156527314178,classic,0,0,0,none,0,0,0,2.2263410588186985,-0.07722388627157481,0.17173950945878327,0
sensor,1768475318733,1408.601357096794,0,-0.07433731108903885,0.8473842144012451,0.5333166718482971,-0.07433731108903885,0.8473842144012451,0.5333166718482971,0,0,0,10.0108418,9.9973061,2.6408157056139485,302,986.9,1.715999960899353,,0,0.292,0.8169999999999998,0.2633002705139766,0.057,-0.10817061252511434,0.9107855068428833,0.3076806781194468,classic,0,0,0,none,0,0,0,2.2593440767674955,-0.10817061252511434,0.23799372245783154,0
sensor,1768475320769,1413.6645487432086,0,-0.08983190357685089,0.8474912643432617,0.5025110840797424,-0.08983190357685089,0.8474912643432617,0.5025110840797424,0,0,0,10.0108684,9.9972686,2.642428955800354,305,986.7,1.715999960899353,,0,1.164,0,1,0,-0.0846021742128924,0.9056054219630858,0.4849004258479776,classic,0,0,0,none,0,0,0,0.8832537485489188,-0.0846021742128924,0.06125494714487559,0
sensor,1768475322743,1418.91306619517,0,-0.1905849575996399,0.8434073328971863,0.5383030772209167,-0.1905849575996399,0.8434073328971863,0.5383030772209167,0,0,0,10.0108934,9.9972279,2.639577031513445,305,986.3000000000001,1.7330000400543213,,0,0.18,0.9440000000000002,0.16014234875444838,0,-0.09670336863882568,0.8986591734355388,0.48714715225922794,classic,0,0,0,none,0,0,0,1.6922498135264992,-0.09670336863882568,0.12095195453586748,0
sensor,1768475324763,1423.9827630028003,0,-0.29459601640701294,0.8183223009109497,0.5862399339675903,-0.29459601640701294,0.8183223009109497,0.5862399339675903,0,0,0,10.0109201,9.9971904,2.6333175849741353,305,986,1.75,,0,0.483,0.34800000000000003,0.5812274368231047,0.314,-0.003317707331249132,0.9750444860679001,0.42134787698901216,classic,0,0,0,none,0,0,0,2.8222639446228217,-0.003317707331249132,0.37144386289488346,0
sensor,1768475326745,1429.5279189479727,0,-0.11441216617822647,0.9107086062431335,0.267782598733902,-0.11441216617822647,0.9107086062431335,0.267782598733902,0,0,0,10.0109518,9.9971513,2.6261964847995922,308,986.1,1.7660000324249268,,0,0.175,0.99,0.1502145922746781,0,-0.02670732727919105,0.9556520891504837,0.4313786617820757,classic,0,0,0,none,0,0,0,1.4113841359886448,-0.02670732727919105,0.19194592616610648,0
sensor,1768475328766,1434.6953237658415,0,-0.18457373976707458,0.8406540751457214,0.5277031660079956,-0.18457373976707458,0.8406540751457214,0.5277031660079956,0,0,0,10.0109801,9.9971139,2.621631651209121,306,986.2,1.7829999923706055,,0,1.143,0,1,0,-0.050894781825765706,0.9391500009004574,0.44061167609592833,classic,0,0,0,none,0,0,0,1.707886492108172,-0.050894781825765706,0.18844271705569693,0
sensor,1768475330747,1440.1558286089723,0,-0.14969944953918457,0.8458545804023743,0.6009238958358765,-0.14969944953918457,0.8458545804023743,0.6009238958358765,0,0,0,10.0110084,9.9970731,2.614725293063246,307,986.5,1.7829999923706055,,0,0.991,0.05899999999999993,0.943809523809524,0.116,-0.07195933997707878,0.9287510673702306,0.3023932114485375,classic,0,0,0,none,0,0,0,3.247404160939523,-0.07195933997707878,0.32103580011746335,0
sensor,1768475332787,1445.561783842297,0,-0.24809695780277252,0.7814136147499084,0.6061244606971741,-0.24809695780277252,0.7814136147499084,0.6061244606971741,0,0,0,10.0110401,9.9970357,2.611792674894667,309,986.4,1.8329999446868896,,0,0.992,0.17500000000000004,0.8500428449014567,0,-0.07774731480224858,0.9216223346467706,0.3352826572135415,classic,0,0,0,none,0,0,0,2.201347957529715,-0.07774731480224858,0.3510873254087427,0
sensor,1768475334767,1451.0853913150354,0,-0.2786884307861328,0.8716585636138916,0.493945449590683,-0.2786884307861328,0.8716585636138916,0.493945449590683,0,0,0,10.0110734,9.9969983,2.612430534024266,305,986.5,1.8660000562667847,,0,0.407,0.758,0.34935622317596565,0,-0.096022187812396,0.9091391237298923,0.3655504961029558,classic,0,0,0,none,0,0,0,2.048605535177397,-0.096022187812396,0.22753780561342807,0
sensor,1768475336763,1455.9493081663445,0,-0.14520250260829926,0.8721632957458496,0.3809710741043091,-0.14520250260829926,0.8721632957458496,0.3809710741043091,0,0,0,10.0110968,9.9969608,2.610701239931176,307,987,1.9160000085830688,,0,0.264,0.938,0.21963394342762066,0,-0.10606199860225239,0.9037814297689469,0.3815118906468967,classic,0,0,0,none,0,0,0,1.414692575268836,-0.10606199860225239,0.0505716213615086,0
