sampleType,timestamp,distance,power,accelX,accelY,accelZ,boatAccelX,boatAccelY,boatAccelZ,gyroX,gyroY,gyroZ,latitude,longitude,speed,gpsHeading,gpsAltitude,gpsAccuracy,spm,strokeCount,driveTime,recoveryTime,driveRatio,catchDuration,gravityX,gravityY,gravityZ,detectorMode,detectorAboveThreshold,detectorForcedStroke,detectorResumingFromGap,detectorRejectionReason,detectorPeakProminence,detectorTimeAboveThresholdMs,detectorTimeSinceLastStrokeMs,detectorSmoothedMagnitude,detectorGravityAlpha,detectorGravityShiftG,detectorConfidence
sensor,1768474779127,11.529910180175197,0,0.072906494140625,0.006744384765625,-0.9687347412109375,0.072906494140625,0.006744384765625,-0.9687347412109375,-0.01727272942662239,0.009150887839496136,0.024893099442124367,9.9999253,9.9999173,0.5748256799844026,51.93322518298643,1001.530331033282,4.748651530191831,,0,0.092,0.4780000000000001,0.1614035087719298,0.24,0.04774335143157969,-0.005194710626730725,-0.9929474101529803,classic,0,0,0,none,0,0,0,0.6360743004824507,0.04774335143157969,0.03709045310661851,0
sensor,1768474781110,14.89526049218661,0,0.06256103515625,0.0003204345703125,-0.9973602294921875,0.06256103515625,0.0003204345703125,-0.9973602294921875,-0.005559082608669996,0.0028634308837354183,0.050325486809015274,9.9999442,9.9999413,0.6434909550178161,51.933225271483764,1001.5623957840726,4.7486515301917995,,0,0.239,0.35900000000000004,0.3996655518394648,0.199,0.049118941713220426,-0.003994187344019085,-0.9914250201773833,classic,0,0,0,none,0,0,0,0.41810091575444314,0.049118941713220426,0.015391412587221239,0
sensor,1768474784143,17.929704871238947,0,0.117584228515625,-0.039825439453125,-0.9993133544921875,0.117584228515625,-0.039825439453125,-0.9993133544921875,-0.03111903741955757,-0.14513376355171204,0.03139227628707886,9.9999645,9.9999598,0.7044674401259556,40.61238509102161,1001.5410950370133,4.748651530191804,,0,0.239,0.40700000000000003,0.369969040247678,0.159,0.04787566142356963,-0.004596501632644339,-0.9896317393377665,classic,0,0,0,none,0,0,0,0.357983726301944,0.04787566142356963,0.07909807009207488,0
sensor,1768474787126,21.272739310790335,0,0.019561767578125,0.015472412109375,-1.009033203125,0.019561767578125,0.015472412109375,-1.009033203125,-0.021164674311876297,-0.10792353749275208,0.021641911938786507,9.9999898,9.9999763,0.7600804651080662,32.262649827920896,1001.596703607589,4.748651530191913,,0,0.079,0.557,0.12421383647798742,0.16,0.04502792436913684,-0.004183268055095884,-0.991053382000417,classic,0,0,0,none,0,0,0,0.18509171422395132,0.04502792436913684,0.03703820817794884,0
sensor,1768474791111,25.705934928720445,0,0.007843017578125,-0.056610107421875,-1.00018310546875,0.007843017578125,-0.056610107421875,-1.00018310546875,0.05150846391916275,0.3083184063434601,-0.00857298169285059,10.0000248,9.9999957,0.8085687702723757,25.686639596076233,1001.3592073312029,4.748651530191845,,0,0.09,0.667,0.11889035667107001,0.04,0.03797666399894627,0.009051132544685595,-0.9912222302305194,classic,0,0,0,none,0,0,0,0.5413952092420231,0.03797666399894627,0.07316508617986892,0
sensor,1768474793104,29.656654900953562,0,-0.023651123046875,0.0184326171875,-0.9949188232421875,-0.023651123046875,0.0184326171875,-0.9949188232421875,0.021133247762918472,0.15253467857837677,0.013490241952240467,10.0000566,10.0000118,0.8923347459334139,24.841467920321687,1001.3349707545713,4.748651530191877,,0,0.278,0.47800000000000004,0.36772486772486773,0.041,0.038347020726954915,0.008888490504306651,-0.9917149603640323,classic,0,0,0,none,0,0,0,0.5959674326207396,0.038347020726954915,0.06312585873832388,0
sensor,1768474796130,34.38635636700843,0,0.0431976318359375,0.026763916015625,-0.99029541015625,0.0431976318359375,0.026763916015625,-0.99029541015625,-0.0006884271278977394,0.005181446205824614,0.013350159861147404,10.0000988,10.0000166,1.2230233283388876,24.41581449733499,1001.5779415378347,3.3078304796857743,,0,0,0.797,0,0,0.03825365899038684,0.0108061216322489,-0.9924628142232402,classic,0,0,0,none,0,0,0,0.28038999130811326,0.03825365899038684,0.016930772390243067,0
sensor,1768474797126,37.59421787597821,0,0.02886962890625,-0.271209716796875,-1.0728302001953125,0.02886962890625,-0.271209716796875,-1.0728302001953125,0.0404432974755764,0.2951730489730835,0.004352670628577471,10.0001264,10.0000252,1.5453380827902234,23.50688629758831,1001.4126693373546,3.165743923730794,,0,0.518,0.279,0.6499372647427855,0,0.037778447337301145,0.00474136090398267,-0.9932701007166709,classic,0,0,0,none,0,0,0,2.0503517599642445,0.037778447337301145,0.2887732482388479,0
sensor,1768474799118,42.7098360368036,0,0.0223236083984375,0.048370361328125,-0.9828643798828125,0.0223236083984375,0.048370361328125,-0.9828643798828125,-0.004795554094016552,0.009162073023617268,0.012516590766608715,10.0001660,10.0000489,1.6168914045846536,23.908179425308912,1001.4226900124922,3.404919225105229,,0,0.239,0.56,0.29912390488110135,0,0.036755784552782514,0.009359761959334908,-0.9911965863174593,classic,0,0,0,none,0,0,0,0.43369240108544393,0.036755784552782514,0.04263415894601978,0
sensor,1768474801110,47.379922868233876,0,0.04339599609375,0.056365966796875,-1.0162200927734375,0.04339599609375,0.056365966796875,-1.0162200927734375,-0.013177854008972645,-0.125658318400383,0.015050588175654411,10.0002057,10.0000629,1.7171557321302715,27.954635420706005,1001.4550965633243,3.3273716576557333,,0,0.159,0.638,0.19949811794228356,0,0.03513587020706574,0.006801360318168495,-0.9913859085997835,classic,0,0,0,none,0,0,0,1.3861602641029622,0.03513587020706574,0.05633178469159407,0
sensor,1768474803107,51.856049632038406,0,0.0886993408203125,0.0446319580078125,-1.0339813232421875,0.0886993408203125,0.0446319580078125,-1.0339813232421875,0.029110746458172798,0.11664672195911407,0.0002948119363281876,10.0002455,10.0000695,2.03687310603847,19.924454222373278,1001.3853748226538,3.227556516231702,,0,0.12,0.676,0.1507537688442211,0,0.03624187994162568,-0.005736974220500673,-0.9913575305962701,classic,0,0,0,none,0,0,0,2.071721693365575,0.03624187994162568,0.08471832595631902,0
sensor,1768474805134,56.491067697068054,0,0.0599365234375,-0.00555419921875,-0.9934844970703125,0.0599365234375,-0.00555419921875,-0.9934844970703125,-0.025559954345226288,-0.01980246603488922,0.00726323900744319,10.0002834,10.0000870,2.084881745781682,19.513166354139315,1001.2994039896876,3.1298461516304736,,0,0.159,0.637,0.19974874371859297,0,0.04182594794223328,0.006352290386664961,-0.9910945910976041,classic,0,0,0,none,0,0,0,0.4947959552223954,0.04182594794223328,0.021914827865251965,0
sensor,1768474806130,59.55408013719941,0,0.0062103271484375,0.065277099609375,-0.988067626953125,0.0062103271484375,0.065277099609375,-0.988067626953125,-0.004803277086466551,-0.09980036318302155,0.00851306039839983,10.0003108,10.0000896,2.162049748511099,16.816445959112695,1001.3588977213949,3.088183005454989,,0,0.16,0.637,0.20075282308657466,0,0.039418360059799165,-0.0050428335714987884,-0.9913742597723014,classic,0,0,0,none,0,0,0,0.8981462760046394,0.039418360059799165,0.07822815170450818,0
sensor,1768474808123,64.49706873797075,0,0.0034027099609375,-0.07843017578125,-0.945281982421875,0.0034027099609375,-0.07843017578125,-0.945281982421875,-0.028611937537789345,-0.060573332011699677,-0.0008934905636124313,10.0003532,10.0001035,2.2376512427115,16.150910671155003,1001.3145503280684,3.154679613084186,,0,0.08,0.558,0.12539184952978055,0.159,0.03986032711929189,0.005103967422802681,-0.9912124981925385,classic,0,0,0,none,0,0,0,0.6478473633383234,0.03986032711929189,0.1025752257423646,0
sensor,1768474809118,69.09686345502197,0,0.01214599609375,0.082489013671875,-0.955963134765625,0.01214599609375,0.082489013671875,-0.955963134765625,0.03115871734917164,0.15988260507583618,0.039812661707401276,10.0003905,10.0001214,2.3397511298824796,17.71905728033849,1001.0302594555542,3.1979801386147932,,0,0.119,0.678,0.14930991217063988,0,0.03183335829188419,-0.0034037583439217797,-0.9915686135320517,classic,0,0,0,none,0,0,0,1.1146462113591922,0.03183335829188419,0.09551922190086286,0
sensor,1768474811110,73.93624780988355,0,-0.0348052978515625,-0.1684112548828125,-0.9725799560546875,-0.0348052978515625,-0.1684112548828125,-0.9725799560546875,-0.02810274064540863,-0.0852413922548294,-0.0031435952987521887,10.0004322,10.0001344,2.412328183255087,15.324883120222133,1002.0960121387616,3.302158926507345,,0,0.119,0.638,0.1571994715984148,0.04,0.028349073762944384,0.003232172430708514,-0.9925974688557395,classic,0,0,0,none,0,0,0,0.6985180333201464,0.028349073762944384,0.1849099885314092,0
sensor,1768474812107,77.47027344718747,0,0.0615234375,0.1346435546875,-0.9721832275390625,0.0615234375,0.1346435546875,-0.9721832275390625,-0.004002731293439865,-0.0695125013589859,0.005738845560699701,10.0004624,10.0001444,2.521766206274946,16.274133124523697,1001.967695874162,3.293219059461778,,0,0.154,0.643,0.1932245922208281,0,0.025258521091625328,-0.001291365130694169,-0.9924046682356115,classic,0,0,0,none,0,0,0,1.0442611742782004,0.025258521091625328,0.14284922864906383,0
sensor,1768474814105,81.77305565717039,0,0.201446533203125,-0.2126007080078125,-1.026092529296875,0.201446533203125,-0.2126007080078125,-1.026092529296875,-0.04507826268672943,-0.0027334685437381268,0.0029060414526611567,10.0004991,10.0001567,2.586131670424994,16.104995789277698,1002.4704524381086,3.39141800807978,,0,0.079,0.6480000000000001,0.10866574965612104,0.08,0.03212055068920426,-0.00036907252520597736,-0.9923490985157413,classic,0,0,0,none,0,0,0,1.3974600998450704,0.03212055068920426,0.27496608499060565,0
sensor,1768474815135,84.87344984507074,0,0.0478057861328125,0.1702423095703125,-0.98077392578125,0.0478057861328125,0.1702423095703125,-0.98077392578125,0.0037907434161752462,-0.07460206747055054,0.04146675020456314,10.0005249,10.0001674,2.6563986329916616,20.047183252016985,1002.477849829942,3.406410432955736,,0,0.119,0.631,0.15866666666666665,0.04,0.036388393349314166,-0.0008282207470337797,-0.9919869727792353,classic,0,0,0,none,0,0,0,1.5526302757003931,0.036388393349314166,0.17268079431378602,0
sensor,1768474817127,89.68145086267965,0,-0.01513671875,-0.2523040771484375,-0.9804840087890625,-0.01513671875,-0.2523040771484375,-0.9804840087890625,0.004012851044535637,0.10506276786327362,0.0046573360450565815,10.0005671,10.0001770,2.7097539604043788,14.118534339239467,1003.0862424867228,3.3913695573352087,,0,0.12,0.48100000000000004,0.19966722129783693,0.196,0.034185582513258775,-0.009685139398236597,-0.9914966921573891,classic,0,0,0,none,0,0,0,2.7379242153021948,0.034185582513258775,0.24907174463052636,0
sensor,1768474818123,92.92498371906936,0,0.0089111328125,0.0818939208984375,-1.0091400146484375,0.0089111328125,0.0818939208984375,-1.0091400146484375,-0.006219812668859959,-0.13642574846744537,0.010714962147176266,10.0005935,10.0001896,2.7722129020348922,21.772758990921446,1003.3049529260024,3.403824752448871,,0,0.159,0.556,0.22237762237762235,0.08,0.035676308364666946,0.0009572897313941856,-0.9911343507741363,classic,0,0,0,none,0,0,0,1.14870216571386,0.035676308364666946,0.08756599314250998,0
sensor,1768474820115,97.43711089472609,0,0.0887451171875,0.1422882080078125,-0.9919891357421875,0.0887451171875,0.1422882080078125,-0.9919891357421875,0.013276124373078346,0.04884583503007889,-0.017438644543290138,10.0006336,10.0001960,2.800048101267042,14.468840104583098,1003.8640259411186,3.541887622349273,,0,0.12,0.677,0.15056461731493098,0,0.03775222862093383,-0.009766045931779653,-0.9906628951141545,classic,0,0,0,none,0,0,0,1.9639367563931955,0.03775222862093383,0.16118839030448798,0
sensor,1768474822110,102.1959349243188,0,0.043212890625,0.022003173828125,-1.0146331787109375,0.043212890625,0.022003173828125,-1.0146331787109375,-0.00782836228609085,0.0708422139286995,0.0005467469454742968,10.0006753,10.0002058,2.804146911120129,10.008732224265742,1003.5017006620765,3.567513582221865,,0,0.199,0.3590000000000001,0.35663082437275984,0.239,0.04051301568434812,0.003500022938175812,-0.989663455414339,classic,0,0,0,none,0,0,0,0.4441171210113595,0.04051301568434812,0.03135200000648341,0
sensor,1768474823143,105.25485896883495,0,0.0579071044921875,0.0468292236328125,-0.9944610595703125,0.0579071044921875,0.0468292236328125,-0.9944610595703125,0.0036043222062289715,-0.01834678277373314,-0.00535348616540432,10.0007014,10.0002147,2.813198128597774,14.241837691757718,1003.9639490777627,3.5503653431996285,,0,0.204,0.3540000000000001,0.3655913978494623,0.239,0.039483388184459595,-0.009197395241443897,-0.98977997837889,classic,0,0,0,none,0,0,0,0.7928710263093468,0.039483388184459595,0.05946087310668962,0
sensor,1768474825135,110.22482066913078,0,0.0465240478515625,-0.025970458984375,-1.0031585693359375,0.0465240478515625,-0.025970458984375,-1.0031585693359375,0.015124624595046043,0.1250993311405182,0.0065071675926446915,10.0007452,10.0002235,2.8155738389683895,10.865431412225757,1003.5839571179822,3.5607504617963732,,0,0.12,0.677,0.15056461731493098,0,0.04222158576016287,0.0009480183541564337,-0.991322448211526,classic,0,0,0,none,0,0,0,0.45157065997447304,0.04222158576016287,0.029868179460488288,0
sensor,1768474827127,114.7428318862545,0,0.0316162109375,0.01190185546875,-0.9546051025390625,0.0316162109375,0.01190185546875,-0.9546051025390625,-0.006366819143295288,-0.02105068974196911,0.015565111301839352,10.0007833,10.0002379,2.7933674367198007,18.321038294116736,1003.0403335206211,3.6145793700385607,,0,0.278,0.47900000000000004,0.3672391017173051,0.04,0.042036582243296136,-0.0013441975951371718,-0.9909053591927209,classic,0,0,0,none,0,0,0,0.794542245871057,0.042036582243296136,0.0402229926433487,0
sensor,1768474828123,118.2755685384607,0,0.029327392578125,0.001708984375,-1.00921630859375,0.029327392578125,0.001708984375,-1.00921630859375,-0.030435670167207718,-0.05922843515872955,-0.004058124963194132,10.0008148,10.0002421,2.792038055152448,12.305822655153165,1003.4799253195524,3.625447489021629,,0,0.119,0.678,0.14930991217063988,0,0.040695900957291246,0.0010634778626510408,-0.9909215758077317,classic,0,0,0,none,0,0,0,0.5325427261940544,0.040695900957291246,0.021657228322995298,0
sensor,1768474830116,122.80022379940797,0,-0.0037994384765625,0.0154876708984375,-0.945556640625,-0.0037994384765625,0.0154876708984375,-0.945556640625,-0.013520602136850357,0.031619444489479065,0.0020908478181809187,10.0008535,10.0002550,2.773510591829368,18.72747429094747,1003.8284524949268,3.647797722492516,,0,0.04,0.717,0.052840158520475564,0.04,0.03429089879851288,0.0005765615467040518,-0.9907392639321101,classic,0,0,0,none,0,0,0,0.5579874798868282,0.03429089879851288,0.06125448342236241,0
sensor,1768474831119,125.91635142342443,0,0.043731689453125,-0.1112518310546875,-0.9896087646484375,0.043731689453125,-0.1112518310546875,-0.9896087646484375,-0.01949460618197918,-0.054718371480703354,0.005089833401143551,10.0008813,10.0002580,2.7708603211292577,12.630617895835645,1004.0280677452683,3.699381675146174,,0,0.319,0.47800000000000004,0.4002509410288582,0,0.0358274155043398,0.0015481286253542967,-0.9908688940461863,classic,0,0,0,none,0,0,0,0.7006264396772129,0.0358274155043398,0.11365184057779758,0
sensor,1768474833143,130.67813823791408,0,0.04608154296875,0.027496337890625,-0.9960174560546875,0.04608154296875,0.027496337890625,-0.9960174560546875,0.0036155073903501034,-0.01685434766113758,0.009913616813719273,10.0009219,10.0002719,2.768169749722842,16.858689746083126,1004.1055095884949,3.7399429073401467,,0,0.438,0.35900000000000004,0.5495608531994981,0,0.03731891577865178,0.0015816106473931844,-0.9908145129246175,classic,0,0,0,none,0,0,0,0.212749685237459,0.03731891577865178,0.02798642816056251,0
sensor,1768474835135,135.3500170606103,0,0.053497314453125,0.1562347412109375,-0.987396240234375,0.053497314453125,0.1562347412109375,-0.987396240234375,0.0017038905061781406,-0.05378466844558716,0.02948332391679287,10.0009630,10.0002811,2.7280036312205187,14.150317088438559,1003.894835870713,3.742381364111301,,0,0.239,0.558,0.29987452948557086,0,0.041001395206586015,-0.0010124259626770066,-0.9904932027079698,classic,0,0,0,none,0,0,0,1.4579723532985926,0.041001395206586015,0.15856611971465126,0
sensor,1768474836131,138.36481843867335,0,0.0548553466796875,0.02581787109375,-0.994659423828125,0.0548553466796875,0.02581787109375,-0.994659423828125,-0.002817091764882207,-0.0035715652629733086,0.006500776391476393,10.0009893,10.0002875,2.7086156359395357,14.075060032273587,1003.4711864804849,3.774375313739153,,0,0.199,0.5569999999999999,0.26322751322751325,0.04,0.04136405723728091,0.0025738226715370533,-0.9925264175524495,classic,0,0,0,none,0,0,0,0.32646285880281395,0.04136405723728091,0.0270956412928598,0
sensor,1768474837127,141.49460752699636,0,0.0467529296875,-0.298431396484375,-0.8847503662109375,0.0467529296875,-0.298431396484375,-0.8847503662109375,0.0006402239087037742,0.025188177824020386,0.00833542738109827,10.0010170,10.0002929,2.715786498685401,13.0471394778315,1003.8111603297293,3.7617372486814364,,0,0.279,0.438,0.3891213389121339,0.08,0.039803215456418045,-0.007308500638282346,-0.9927761504336778,classic,0,0,0,none,0,0,0,2.8238967638583095,0.039803215456418045,0.3121576476406231,0
sensor,1768474839119,146.31875519184985,0,0.0616607666015625,0.045654296875,-1.01708984375,0.0616607666015625,0.045654296875,-1.01708984375,0.009471798315644264,0.002645317930728197,0.01732013374567032,10.0010591,10.0003034,2.7297509141170364,13.812913689625924,1004.3269102070481,3.743609560607822,,0,0.478,0.31800000000000006,0.6005025125628141,0,0.04099588998367585,0.004671180672097548,-0.9933063044892377,classic,0,0,0,none,0,0,0,0.37269771954530967,0.04099588998367585,0.05195415809802381,0
sensor,1768474841113,150.2720633833733,0,0.033111572265625,-0.0335845947265625,-1.0444793701171875,0.033111572265625,-0.0335845947265625,-1.0444793701171875,0.0028306739404797554,-0.12528735399246216,0.017173927277326584,10.0010943,10.0003088,2.692420157712493,11.686195284475112,1004.6000675400719,3.67794321223702,,0,0.439,0.23900000000000005,0.6474926253687315,0.119,0.043099147590826455,0.0016083706094330043,-0.9930958274987504,classic,0,0,0,none,0,0,0,0.9486421237882142,0.043099147590826455,0.06339283055218423,0
sensor,1768474842113,154.29185502978052,0,0.0728759765625,0.0818023681640625,-0.941070556640625,0.0728759765625,0.0818023681640625,-0.941070556640625,-0.019241072237491608,-0.08225652575492859,0.0033273533917963505,10.0011299,10.0003149,2.6873606296456356,10.326517343042322,1004.7126257857308,3.693916094312477,,0,0.08,0.518,0.13377926421404684,0.199,0.0438554801150967,0.004842430699559353,-0.9938547531700094,classic,0,0,0,none,0,0,0,0.6473411992831494,0.0438554801150967,0.09822130961677009,0
sensor,1768474844140,158.6460541549676,0,0.0617828369140625,0.041351318359375,-0.975189208984375,0.0617828369140625,0.041351318359375,-0.975189208984375,-0.006623015273362398,0.007481884676963091,0.031020766124129295,10.0011688,10.0003191,2.646929774019222,6.269757551287844,1004.9390546698123,3.7544163701257163,,0,0.16,0.438,0.2675585284280937,0.199,0.04119881870942452,0.0013294557384812943,-0.9939357622892984,classic,0,0,0,none,0,0,0,0.96976326222049,0.04119881870942452,0.048998294477505956,0
sensor,1768474845135,162.17633903360436,0,0.0119476318359375,0.07421875,-1.010772705078125,0.0119476318359375,0.07421875,-1.010772705078125,-0.005365204066038132,0.016625048592686653,0.004661863669753075,10.0011997,10.0003269,2.643982175223064,9.56739608541542,1004.9086557449773,3.8092855863392288,,0,0.119,0.678,0.14930991217063988,0,0.04016854136237979,0.004129062695603792,-0.993696717006783,classic,0,0,0,none,0,0,0,0.5889944057636459,0.04016854136237979,0.07785263107557805,0
sensor,1768474847127,166.50814681535726,0,0.0165252685546875,0.0005950927734375,-0.9763641357421875,0.0165252685546875,0.0005950927734375,-0.9763641357421875,-0.004043211229145527,-0.050752926617860794,0.012295282445847988,10.0012381,10.0003331,2.6105124144386855,9.320843727251994,1005.432263107039,3.80978017430507,,0,0.159,0.558,0.22175732217573219,0.08,0.03925209015902511,0.0026689808317256346,-0.9938959719776371,classic,0,0,0,none,0,0,0,0.7145650118392808,0.03925209015902511,0.028922638030302053,0
sensor,1768474848124,170.26407101164162,0,-0.0467376708984375,-0.106109619140625,-0.9543609619140625,-0.0467376708984375,-0.106109619140625,-0.9543609619140625,-0.016142483800649643,-0.05178489908576012,-0.0012434299569576979,10.0012715,10.0003381,2.6179518859619506,8.896913695439132,1005.6118618194014,3.8028430589276114,,0,0.12,0.677,0.15056461731493098,0,0.036456724224108866,0.004839175711241468,-0.9931051166856765,classic,0,0,0,none,0,0,0,0.8482341225903373,0.036456724224108866,0.1447098401727989,0
sensor,1768474850115,175.37595239258465,0,0.0469512939453125,-0.003631591796875,-1.0045318603515625,0.0469512939453125,-0.003631591796875,-1.0045318603515625,0.008795355446636677,0.07630062848329544,0.012065717950463295,10.0013172,10.0003438,2.6321998823285186,7.599356861146272,1005.442713689059,3.7701589326644798,,0,0.199,0.5940000000000001,0.25094577553593944,0,0.03219488965630334,0.004682423644304552,-0.9920486533397256,classic,0,0,0,none,0,0,0,0.41379074027518065,0.03219488965630334,0.021146282202215035,0
sensor,1768474852108,180.3000084316777,0,0.0795135498046875,0.1556549072265625,-0.97125244140625,0.0795135498046875,0.1556549072265625,-0.97125244140625,0.009693640284240246,0.005916478578001261,0.022646456956863403,10.0013611,10.0003496,2.618783626732655,6.602004085184912,1005.3384952051565,3.8059177195748664,,0,0.158,0.598,0.20899470899470898,0.041,0.033401666159087504,-0.0006754411277390629,-0.9914111719971311,classic,0,0,0,none,0,0,0,1.203404264432303,0.033401666159087504,0.16505639366448785,0
sensor,1768474854140,186.46945169905024,0,-0.1407623291015625,-0.3178253173828125,-1.01763916015625,-0.1407623291015625,-0.3178253173828125,-1.01763916015625,-0.015234879218041897,-0.021698903292417526,-0.01022946834564209,10.0014160,10.0003574,2.6286247984835245,7.12122116314445,1005.2610404351726,3.7229831883080022,,0,0.159,0.638,0.19949811794228356,0,0.02884646119231007,-0.002656719274889546,-0.9923620791782222,classic,0,0,0,none,0,0,0,2.4072235857619892,0.02884646119231007,0.36060284393120157,0
sensor,1768474856132,191.69150291931192,0,0.0291595458984375,0.0394439697265625,-1.00177001953125,0.0291595458984375,0.0394439697265625,-1.00177001953125,-0.0004242415598127991,-0.06434357166290283,0.015536082908511162,10.0014629,10.0003611,2.6510277760869796,5.581153943692531,1004.7002190547064,3.695298499786629,,0,0.199,0.43800000000000006,0.31240188383045525,0.16,0.023912907611645457,0.005491880852462913,-0.9910209545582988,classic,0,0,0,none,0,0,0,0.3945630804317014,0.023912907611645457,0.0361783074168375,0
sensor,1768474858124,195.5156424377177,0,0.072845458984375,0.0596466064453125,-0.9925994873046875,0.072845458984375,0.0596466064453125,-0.9925994873046875,0.013294233940541744,0.0657462552189827,0.010266751982271671,10.0014969,10.0003658,2.6162243789535884,7.978712822299746,1004.449556353502,3.7183390298584165,,0,0.08,0.7170000000000001,0.10037641154328733,0,0.018340774196282827,0.0045816507375741125,-0.9911157260203,classic,0,0,0,none,0,0,0,1.38676584960261,0.018340774196282827,0.07788206519398645,0
sensor,1768474859120,199.5575671509501,0,-0.0380096435546875,0.049346923828125,-1.019927978515625,-0.0380096435546875,0.049346923828125,-1.019927978515625,0.0005571332876570523,-0.01835557073354721,-0.00006764429417671636,10.0015331,10.0003697,2.611000311608835,6.463416392343629,1004.359253892675,3.6979952364260393,,0,0.04,0.677,0.05578800557880055,0.08,0.01801334324425649,0.006492777156030181,-0.9911725664530354,classic,0,0,0,none,0,0,0,0.6158701388825045,0.01801334324425649,0.07655314487372952,0
sensor,1768474860116,202.60997211854198,0,-0.007843017578125,0.1214447021484375,-1.015777587890625,-0.007843017578125,0.1214447021484375,-1.015777587890625,0.01552036963403225,0.15069204568862915,-0.0022509037517011166,10.0015604,10.0003722,2.6307792073145024,5.873362784177681,1004.5503145316616,3.7136489515797746,,0,0,0.797,0,0,0.013307593763401243,-0.005260067817077608,-0.9915883845743666,classic,0,0,0,none,0,0,0,1.8808849511610317,0.013307593763401243,0.13137244910958523,0
sensor,1768474862115,207.93799516998578,0,0.0500335693359375,0.0338897705078125,-1.02655029296875,0.0500335693359375,0.0338897705078125,-1.02655029296875,-0.013333648443222046,-0.05314258113503456,0.0011560781858861446,10.0016081,10.0003769,2.665495157207414,5.701394358454343,1004.4688563225791,3.763143821609382,,0,0.079,0.677,0.10449735449735449,0.04,0.019269135592412702,0.006221114514289469,-0.9917141195252561,classic,0,0,0,none,0,0,0,0.59837635058593,0.019269135592412702,0.054360283446522634,0
sensor,1768474864140,212.55662247803048,0,0.0268707275390625,-0.01513671875,-1.02093505859375,0.0268707275390625,-0.01513671875,-1.02093505859375,-0.009811884723603725,-0.11431485414505005,0.024217987433075905,10.0016496,10.0003746,2.6723014987164118,357.7755535598081,1005.5761142121628,3.7565137696323587,,0,0.12,0.637,0.15852047556142668,0.04,0.027508980499205426,0.0022051145849102624,-0.9897808682858574,classic,0,0,0,none,0,0,0,0.7893352467323999,0.027508980499205426,0.035840527965695444,0
sensor,1768474865136,216.21309212307233,0,0.0571746826171875,-0.0450286865234375,-0.9834747314453125,0.0571746826171875,-0.0450286865234375,-0.9834747314453125,0.010729343630373478,0.029929136857390404,0.003954794257879257,10.0016820,10.0003802,2.7076732380337503,3.2981498613655247,1005.4444169122726,3.7635578967797603,,0,0.169,0.598,0.22033898305084748,0.04,0.031056644431041537,0.003875496500509786,-0.9897738811045965,classic,0,0,0,none,0,0,0,0.7907286276243953,0.031056644431041537,0.056078693822823544,0
sensor,1768474867128,220.6953580701877,0,0.055206298828125,-0.008819580078125,-0.89862060546875,0.055206298828125,-0.008819580078125,-0.89862060546875,-0.0015614113071933389,0.11099842190742493,0.0010751180816441774,10.0017223,10.0003808,2.7058626218431363,1.3627890512802294,1004.9745049541816,3.794086537817985,,0,0,0.638,0,0.159,0.036602294615418904,0.0007898965203497851,-0.9899564449781384,classic,0,0,0,none,0,0,0,0.6243354544476148,0.036602294615418904,0.09417619883756201,0
sensor,1768474868124,224.03404951889397,0,-0.031219482421875,-0.2107391357421875,-0.9810791015625,-0.031219482421875,-0.2107391357421875,-0.9810791015625,-0.01978994905948639,-0.09255602955818176,0.0008045409340411425,10.0017522,10.0003839,2.7167622274595398,2.9550020243102146,1005.1983514297754,3.7685900155321326,,0,0.119,0.678,0.14930991217063988,0,0.03729945371129493,0.0007077067334623234,-0.9900769822074883,classic,0,0,0,none,0,0,0,0.9408163825413438,0.03729945371129493,0.22357138839934435,0
sensor,1768474870118,229.14733879012815,0,0.0571746826171875,0.014190673828125,-0.981170654296875,0.0571746826171875,0.014190673828125,-0.981170654296875,-0.0018751317402347922,0.060690511018037796,0.0036155073903501034,10.0017982,10.0003852,2.7315862028014157,1.8661059792999422,1005.478078131564,3.78502060382272,,0,0.358,0.44100000000000006,0.4480600750938673,0,0.03739836366545578,0.0019129835352517171,-0.9904865755863999,classic,0,0,0,none,0,0,0,0.431506184436266,0.03739836366545578,0.02519850455650104,0
sensor,1768474871113,232.17523181398698,0,0.02264404296875,-0.232879638671875,-1.01922607421875,0.02264404296875,-0.232879638671875,-1.01922607421875,-0.023209182545542717,-0.08037207275629044,0.0057074204087257385,10.0018253,10.0003874,2.774594859304052,2.8473475705869764,1004.8498578248546,3.740132178396064,,0,0.16,0.637,0.20075282308657466,0,0.040339468888162304,-0.0011265970986310326,-0.9905916560818441,classic,0,0,0,none,0,0,0,1.293201111979134,0.040339468888162304,0.23536162891431817,0
sensor,1768474873144,237.07367530500846,0,0.0341949462890625,0.0298614501953125,-0.9678802490234375,0.0341949462890625,0.0298614501953125,-0.9678802490234375,0.0020780644845217466,-0.14325062930583954,-0.005197425372898579,10.0018693,10.0003895,2.802486416449013,2.569675269782349,1005.0174529086798,3.6954593128062427,,0,0.119,0.5980000000000001,0.16596931659693162,0.08,0.041924918526846246,0.0021056874073692466,-0.9893435703192329,classic,0,0,0,none,0,0,0,0.6608867404738775,0.041924918526846246,0.03610837229673302,0
sensor,1768474874140,240.27990801128644,0,-0.0656280517578125,-0.2986297607421875,-1.0033111572265625,-0.0656280517578125,-0.2986297607421875,-1.0033111572265625,-0.016442622989416122,0.0060293967835605145,-0.008676844649016857,10.0018981,10.0003912,2.8443555608158597,2.5440342549204433,1004.8993081049994,3.630276849571028,,0,0.159,0.638,0.19949811794228356,0,0.04000422048481193,-0.0075963258716646755,-0.9895451998787397,classic,0,0,0,none,0,0,0,2.690666815998012,0.04000422048481193,0.31147371005776214,0
sensor,1768474876132,244.99711616091963,0,0.0658721923828125,0.0192413330078125,-0.9998779296875,0.0658721923828125,0.0192413330078125,-0.9998779296875,-0.002823749789968133,-0.16562971472740173,0.014390923082828522,10.0019405,10.0003936,2.86792513856844,2.9014031581227746,1004.2085695490241,3.6416771930404304,,0,0.2,0.5170000000000001,0.2789400278940028,0.079,0.03451811317885425,0.0037250318485458323,-0.9887639683763813,classic,0,0,0,none,0,0,0,0.5011757748050755,0.03451811317885425,0.03689077513534796,0
sensor,1768474877128,248.20212595935482,0,-0.051971435546875,-0.1699676513671875,-0.99615478515625,-0.051971435546875,-0.1699676513671875,-0.99615478515625,0.03153342381119728,0.09720378369092941,0.005138303153216839,10.0019693,10.0003940,2.903107717910496,2.245064370468391,1004.5967983203009,3.6507038304156003,,0,0.12,0.47800000000000004,0.20066889632107018,0.199,0.025355814230392314,-0.0071055553366516965,-0.9882739548208965,classic,0,0,0,none,0,0,0,2.4349891492559883,0.025355814230392314,0.1813664492477997,0
sensor,1768474879120,253.12677794925125,0,0.030548095703125,0.034210205078125,-0.9831695556640625,0.030548095703125,0.034210205078125,-0.9831695556640625,-0.0008876316132955253,-0.01938355155289173,0.007391603663563728,10.0020135,10.0003972,2.9237679259941656,3.314186271960984,1003.68869147636,3.704554475260566,,0,0.319,0.398,0.4449093444909344,0.08,0.0240975467577836,0.005484078048307451,-0.9870976597273471,classic,0,0,0,none,0,0,0,0.5376412798602925,0.0240975467577836,0.029851614161891735,0
sensor,1768474880116,256.26249707284273,0,-0.0575408935546875,0.027191162109375,-1.00811767578125,-0.0575408935546875,0.027191162109375,-1.00811767578125,0.05126798152923584,0.2396104633808136,0.0150402020663023,10.0020416,10.0003977,2.9543025909350713,2.7214233828817096,1004.099469226785,3.6542057820280496,,0,0.16,0.478,0.2507836990595611,0.159,0.01805556253560201,-0.007188262788096138,-0.9883158484504091,classic,0,0,0,none,0,0,0,1.9785981412302118,0.01805556253560201,0.08580396577516836,0
sensor,1768474882116,261.6437091522515,0,-0.026611328125,0.0536041259765625,-0.9634246826171875,-0.026611328125,0.0536041259765625,-0.9634246826171875,-0.012171179056167603,-0.03196192905306816,0.005820604972541332,10.0020900,10.0003989,2.997175350888657,1.993716507475518,1004.6603568037972,3.709452694162975,,0,0.239,0.47800000000000004,0.33333333333333326,0.08,0.019588095465526305,0.006525034341294153,-0.9885690747010306,classic,0,0,0,none,0,0,0,0.5436446805529803,0.019588095465526305,0.07094557759646014,0
sensor,1768474884140,265.89464653607763,0,0.095977783203125,0.0459442138671875,-0.9347381591796875,0.095977783203125,0.0459442138671875,-0.9347381591796875,0.010006029158830643,0.03560992702841759,0.007397995330393314,10.0021280,10.0004030,2.973132803303749,2.6625247458990806,1004.9289168082178,3.809873274186564,,0,0.119,0.677,0.1494974874371859,0,0.01928676649896764,0.0039281377871236214,-0.9892630107340084,classic,0,0,0,none,0,0,0,0.8108454514400931,0.01928676649896764,0.10357037308301452,0
sensor,1768474885136,269.50949863236804,0,-0.0265655517578125,-0.0040283203125,-1.0629425048828125,-0.0265655517578125,-0.0040283203125,-1.0629425048828125,0.01900405064225197,0.20176081359386444,-0.006039782892912626,10.0021604,10.0004062,2.9621677507544266,4.321734539105895,1004.5810695867985,3.7946024081322,,0,0.12,0.677,0.15056461731493098,0,0.019120776611528667,0.0058052697539137735,-0.9893547976731408,classic,0,0,0,none,0,0,0,0.701656697277715,0.019120776611528667,0.08761081787394813,0
sensor,1768474887128,273.9817636992437,0,0.0538787841796875,0.00439453125,-0.96893310546875,0.0538787841796875,0.00439453125,-0.96893310546875,-0.004033890087157488,0.10290427505970001,-0.0070730894804000854,10.0022005,10.0004095,2.911428019434379,5.345036151588793,1004.5919446535408,3.8397249864143674,,0,0.08,0.6380000000000001,0.11142061281337046,0.079,0.018367262004453246,0.003404718985714003,-0.9891416928983362,classic,0,0,0,none,0,0,0,0.634512866829851,0.018367262004453246,0.04107633642285791,0
sensor,1768474888124,278.2961727212839,0,0.0753936767578125,-0.0386810302734375,-0.998748779296875,0.0753936767578125,-0.0386810302734375,-0.998748779296875,-0.01510065607726574,0.060319267213344574,0.0005941512063145638,10.0022390,10.0004139,2.922261151712174,5.579863081682833,1005.1860301112756,3.8152855940219035,,0,0.12,0.677,0.15056461731493098,0,0.024076759657752266,0.0043725926189394655,-0.9896210069615422,classic,0,0,0,none,0,0,0,0.721946955920094,0.024076759657752266,0.06794413363522381,0
sensor,1768474890116,281.9541712845834,0,-0.067901611328125,0.0081329345703125,-1.035552978515625,-0.067901611328125,0.0081329345703125,-1.035552978515625,-0.00896766223013401,0.25638678669929504,-0.0093317162245512,10.0022719,10.0004149,2.897025985078476,3.608886695114936,1004.8928807163611,3.8200615389726824,,0,0.08,0.736,0.09803921568627452,0,0.0295304778161944,0.0010477465804494322,-0.9921961737924403,classic,0,0,0,none,0,0,0,0.7285390925460257,0.0295304778161944,0.10741562790364383,0
sensor,1768474891115,285.55989653414485,0,-0.010986328125,-0.2940826416015625,-1.02362060546875,-0.010986328125,-0.2940826416015625,-1.02362060546875,-0.027065971866250038,-0.13400787115097046,-0.01197117567062378,10.0023041,10.0004188,2.885057927351214,4.950918212036063,1004.528503430076,3.8312362507978577,,0,0.079,0.7170000000000001,0.0992462311557789,0,0.031744858255612296,-0.00010525634246560142,-0.9923291484166906,classic,0,0,0,none,0,0,0,1.309630373704881,0.031744858255612296,0.3002113051240084,0
sensor,1768474893144,290.6107349450306,0,-0.0177001953125,0.0452117919921875,-0.9726104736328125,-0.0177001953125,0.0452117919921875,-0.9726104736328125,-0.0064805359579622746,0.00430100504308939,0.002630670554935932,10.0023494,10.0004221,2.8736468561965673,4.673890534072558,1004.3902764841914,3.841219137231415,,0,0.199,0.3980000000000001,0.3333333333333333,0.2,0.030784902645088597,0.002275540580248349,-0.9927954003763878,classic,0,0,0,none,0,0,0,0.46535989456043514,0.030784902645088597,0.06817714207013005,0
sensor,1768474895136,295.1808220462086,0,0.08624267578125,0.0960693359375,-0.9693603515625,0.08624267578125,0.0960693359375,-0.9693603515625,0.0034903388004750013,-0.027147730812430382,0.002379534300416708,10.0023905,10.0004242,2.8128237440841515,2.4895671952394536,1004.9672309830785,3.8806764189505834,,0,0.319,0.44000000000000006,0.4202898550724637,0.039,0.027217715647357796,0.0010947995741945906,-0.9915809584503977,classic,0,0,0,none,0,0,0,1.6107479580829138,0.027217715647357796,0.11458107987250668,0
sensor,1768474896132,298.5061519606682,0,0.0925750732421875,0.025665283203125,-0.995452880859375,0.0925750732421875,0.025665283203125,-0.995452880859375,-0.005637113004922867,0.033843982964754105,0.00606534956023097,10.0024203,10.0004264,2.7823147496142293,3.0767913795042032,1004.886289075017,3.8768344257212206,,0,0.039,0.677,0.05446927374301675,0.08,0.028102145356465193,0.003319451298035467,-0.9908387433131554,classic,0,0,0,none,0,0,0,0.4434564230152499,0.028102145356465193,0.06873508496567275,0
sensor,1768474897128,301.761378745468,0,0.0090484619140625,-0.2425537109375,-1.004150390625,0.0090484619140625,-0.2425537109375,-1.004150390625,-0.010988202877342701,-0.03702219948172569,0.01642877422273159,10.0024495,10.0004293,2.7874229109118884,3.7537845590945094,1004.5913056815043,3.8882205448031257,,0,0,0.7060000000000001,0,0.08,0.029906765189698113,-0.007948046794994097,-0.9913363673101286,classic,0,0,0,none,0,0,0,2.3968538328922615,0.029906765189698113,0.23706471150142805,0
sensor,1768474899120,306.8988006046876,0,0.00213623046875,0.067474365234375,-1.002838134765625,0.00213623046875,0.067474365234375,-1.002838134765625,0.0064805359579622746,0.043831370770931244,0.01317971758544445,10.0024957,10.0004296,2.8032609588161814,1.898993087569898,1004.9501776378602,3.899031420918483,,0,0.239,0.43700000000000006,0.35355029585798814,0.12,0.031136184445750593,0.005108574500330243,-0.9898247342554816,classic,0,0,0,none,0,0,0,0.6086639307545078,0.031136184445750593,0.07035059422861115,0
sensor,1768474900118,309.9233935709825,0,0.071990966796875,0.0717926025390625,-1.0093231201171875,0.071990966796875,0.0717926025390625,-1.0093231201171875,0.010977549478411674,-0.04045741260051727,0.006105296779423952,10.0025227,10.0004321,2.847082258805834,3.0052251783009383,1005.0502685308456,3.884845369882236,,0,0.08,0.679,0.10540184453227931,0.04,0.031052604879473082,-0.007767022736057737,-0.9895929253195339,classic,0,0,0,none,0,0,0,1.773166410925786,0.031052604879473082,0.09208445864368209,0
sensor,1768474902117,315.2069362475074,0,0.0164642333984375,-0.00274658203125,-0.964324951171875,0.0164642333984375,-0.00274658203125,-0.964324951171875,0.01128301490098238,0.08950644731521606,0.006988134700804949,10.0025698,10.0004388,2.891293095827948,6.029618646868908,1004.81018751394,3.9461265119157143,,0,0.12,0.558,0.17699115044247785,0.119,0.0341361267873506,0.00428895081449054,-0.9899882366569817,classic,0,0,0,none,0,0,0,0.4415463348692449,0.0341361267873506,0.03210420207978558,0
sensor,1768474904140,319.71786077197083,0,0.0166473388671875,0.012908935546875,-1.001617431640625,0.0166473388671875,0.012908935546875,-1.001617431640625,0.02881726622581482,0.20195814967155457,0.009801497682929039,10.0026104,10.0004393,2.8778254513861676,2.9581161781241665,1005.1295019937679,3.9509114395602483,,0,0.119,0.637,0.1574074074074074,0.04,0.036903224218892014,0.001164014582985396,-0.9911804867599671,classic,0,0,0,none,0,0,0,0.5380883332050479,0.036903224218892014,0.025764223950041413,0
sensor,1768474905136,322.9307100296848,0,-0.0244293212890625,0.0293426513671875,-0.9776611328125,-0.0244293212890625,0.0293426513671875,-0.9776611328125,-0.01248383428901434,-0.03773592785000801,-0.0006476807757280767,10.0026391,10.0004423,2.8676707812528717,3.9765129635004377,1004.6279126666486,3.939430353562773,,0,0.232,0.5680000000000001,0.29,0,0.0363971789088595,0.004493046091069819,-0.9905684281919793,classic,0,0,0,none,0,0,0,0.7033750841620652,0.0363971789088595,0.06729890399514162,0
sensor,1768474907128,327.90496198250605,0,0.0239410400390625,0.0000152587890625,-0.9860992431640625,0.0239410400390625,0.0000152587890625,-0.9860992431640625,-0.0026288062799721956,0.017369668930768967,-0.00660463934764266,10.0026836,10.0004473,2.839952207313452,4.957569160521865,1005.1278096698225,3.9590706909947353,,0,0.12,0.677,0.15056461731493098,0,0.03681923420656079,0.001623894556846118,-0.9922820825917865,classic,0,0,0,none,0,0,0,0.4724212276179741,0.03681923420656079,0.014448021737461413,0
sensor,1768474908124,331.08002077086024,0,-0.0610504150390625,-0.3240203857421875,-1.0084381103515625,-0.0610504150390625,-0.3240203857421875,-1.0084381103515625,-0.02069329470396042,-0.05860525742173195,-0.0046637277118861675,10.0027120,10.0004494,2.8344073442056668,4.079474480619829,1004.872819468379,3.8979944455265243,,0,0.358,0.43900000000000006,0.44918444165621074,0,0.033295814560454114,0.0002805625282713078,-0.9919298660548316,classic,0,0,0,none,0,0,0,1.4528067736807557,0.033295814560454114,0.3398483779503427,0
sensor,1768474910116,336.079132293976,0,0.009246826171875,0.0418853759765625,-0.9976806640625,0.009246826171875,0.0418853759765625,-0.9976806640625,-0.003144926857203245,0.031242607161402702,-0.0008732505375519395,10.0027568,10.0004532,2.8323209291864915,4.932680699677014,1004.2048661643639,3.8836509687922725,,0,0.478,0.2790000000000001,0.6314398943196828,0.04,0.027166154644720233,0.003180940343520615,-0.9929017345989288,classic,0,0,0,none,0,0,0,0.6244053913998314,0.027166154644720233,0.04313389213365172,0
sensor,1768474912118,340.019202868173,0,0.03955078125,0.1343231201171875,-0.9852447509765625,0.03955078125,0.1343231201171875,-0.9852447509765625,0.03050544485449791,0.039138879626989365,0.026813505217432976,10.0027922,10.0004546,2.759397256630192,3.2900917204832605,1004.3475964209065,3.8680424970609075,,0,0.079,0.7180000000000001,0.09912170639899623,0,0.024186910066424025,-0.0003302999718969073,-0.9924057174821167,classic,0,0,0,none,0,0,0,1.2303573053656205,0.024186910066424025,0.13639813385321684,0
sensor,1768474913144,343.2713348431103,0,0.05633544921875,0.0420684814453125,-0.9976959228515625,0.05633544921875,0.0420684814453125,-0.9976959228515625,-0.009368201717734337,-0.04977687820792198,0.0073471288196742535,10.0028214,10.0004567,2.7113369755935044,3.091996787344422,1003.8276960141957,3.8429194251560235,,0,0.12,0.47800000000000004,0.20066889632107018,0.199,0.028046572326368813,0.004656951004151784,-0.9918296064666383,classic,0,0,0,none,0,0,0,0.40995898773099393,0.028046572326368813,0.047505878567631894,0
sensor,1768474914140,347.01535344021636,0,-0.03265380859375,-0.1299285888671875,-1.0173797607421875,-0.03265380859375,-0.1299285888671875,-1.0173797607421875,0.033123597502708435,0.147734597325325,0.00743181724101305,10.0028549,10.0004607,2.7248980015889304,4.545752252686941,1004.2717260802165,3.826033366362916,,0,0.2,0.5579999999999999,0.2638522427440633,0.039,-0.01974549107241953,-0.14316989527371296,-0.9642416500288342,classic,0,0,0,none,0,0,0,1.610978646880533,-0.01974549107241953,0.056546536917572075,0
sensor,1768474916132,351.1244920130354,0,0.00982666015625,0.0521087646484375,-0.998504638671875,0.00982666015625,0.0521087646484375,-0.998504638671875,-0.013991981744766235,-0.01672651618719101,0.015864983201026917,10.0028913,10.0004671,2.7457748224590435,7.211646144551136,1003.4654352562502,3.8431843924724483,,0,0.079,0.7170000000000001,0.0992462311557789,0,-0.009116459427068976,-0.09919981842378094,-0.9702454190897822,classic,0,0,0,none,0,0,0,1.603977167288996,-0.009116459427068976,0.155865473046461,0
sensor,1768474918124,355.0727173423654,0,0.01922607421875,-0.063201904296875,-0.9548797607421875,0.01922607421875,-0.063201904296875,-0.9548797607421875,0.0011891013709828258,0.04068564251065254,0.00620995881035924,10.0029266,10.0004708,2.712230691341594,8.975408709632053,1003.2530954759568,3.8282344271774633,,0,0.079,0.678,0.10435931307793923,0.04,-0.0039841073364484435,-0.07860931582328505,-0.9744936053289572,classic,0,0,0,none,0,0,0,1.4286865831658189,-0.0039841073364484435,0.03424177914695581,0
sensor,1768474919120,359.18592016464095,0,0.0233001708984375,0.02789306640625,-0.9702301025390625,0.0233001708984375,0.02789306640625,-0.9702301025390625,-0.023298930376768112,-0.13843484222888947,-0.0034141724463552237,10.0029635,10.0004736,2.709036835554118,6.975573383845372,1003.1786359185353,3.861116876816563,,0,0.279,0.47900000000000004,0.36807387862796836,0.039,0.0014706687668185228,-0.0661741961395819,-0.9776652802260407,classic,0,0,0,none,0,0,0,1.28213929344218,0.0014706687668185228,0.09733946659341604,0
sensor,1768474921112,363.52248075738237,0,0.094573974609375,0.0186004638671875,-0.9984283447265625,0.094573974609375,0.0186004638671875,-0.9984283447265625,0.02762523666024208,0.019282884895801544,0.017883125692605972,10.0030024,10.0004714,2.6776399204545003,0.8756338330330559,1003.1789141502231,3.936660081642119,,0,0.16,0.597,0.21136063408190225,0.039,0.0054472586264925245,-0.05224754690414296,-0.9816431122428089,classic,0,0,0,none,0,0,0,1.0858782453346738,0.0054472586264925245,0.11566418522614637,0
sensor,1768474922115,366.96070853685194,0,0.022247314453125,0.01519775390625,-1.015167236328125,0.022247314453125,0.01519775390625,-1.015167236328125,-0.028559738770127296,0.034448787569999695,0.0023987090680748224,10.0030333,10.0004733,2.6790792128528285,2.0421349304272027,1002.8052628803998,3.94751409543045,,0,0.12,0.677,0.15056461731493098,0,0.010143965187637497,-0.04318220904710188,-0.9828218905456229,classic,0,0,0,none,0,0,0,0.7939178846422835,0.010143965187637497,0.0681710293442474,0
sensor,1768474924140,371.6763172760467,0,0.0581817626953125,-0.016845703125,-0.986419677734375,0.0581817626953125,-0.016845703125,-0.986419677734375,0.00004394215648062527,0.0658666342496872,0.0006058691651560366,10.0030756,10.0004767,2.668823086728563,4.172389529480658,1002.6923140343279,3.9651962879447997,,0,0.08,0.6370000000000001,0.1115760111576011,0.079,0.014814274488511749,-0.03457770305166697,-0.9863184665958633,classic,0,0,0,none,0,0,0,0.5501221383724821,0.014814274488511749,0.04708811497517965,0
sensor,1768474925136,375.12480934959655,0,-0.0179290771484375,-0.2682647705078125,-0.9718780517578125,-0.0179290771484375,-0.2682647705078125,-0.9718780517578125,-0.021258151158690453,-0.004081028047949076,-0.0035305526107549667,10.0031065,10.0004789,2.6776677440014667,4.325513256002908,1003.1128969257697,3.9797519852082752,,0,0.398,0.35900000000000004,0.5257595772787318,0.04,0.01783334538208199,-0.03079981608124412,-0.9868539883596171,classic,0,0,0,none,0,0,0,0.969655329783649,0.01783334538208199,0.24181838961373428,0
sensor,1768474927128,380.297935520694,0,0.038421630859375,0.0268096923828125,-0.98284912109375,0.038421630859375,0.0268096923828125,-0.98284912109375,0.008387359790503979,0.06321065872907639,0.011582087725400925,10.0031530,10.0004803,2.6930139815099627,2.6757274999081386,1003.3455015532672,4.021794119463887,,0,0.16,0.637,0.20075282308657466,0,0.02046401249760179,-0.02221848231738283,-0.9869214373844486,classic,0,0,0,none,0,0,0,0.5520221600596624,0.02046401249760179,0.0526351312396156,0
sensor,1768474929120,384.65218627471467,0,0.060333251953125,0.10601806640625,-1.004302978515625,0.060333251953125,0.10601806640625,-1.004302978515625,-0.010949053801596165,-0.10149013996124268,0.00035366779775358737,10.0031921,10.0004825,2.6740150602198507,2.306994829073392,1003.7938054446131,4.021509679937903,,0,0.12,0.677,0.15056461731493098,0,0.03098348349513138,-0.02109907456255078,-0.9876604455408189,classic,0,0,0,none,0,0,0,1.779762985037166,0.03098348349513138,0.1321795287972847,0
sensor,1768474930116,387.92066694599515,0,0.05230712890625,0.06890869140625,-1.0255126953125,0.05230712890625,0.06890869140625,-1.0255126953125,-0.0032317459117621183,-0.008123972453176975,0.005675995256751776,10.0032212,10.0004779,2.671345069218034,356.7792359682617,1003.536685035564,3.9949024520849106,,0,0.08,0.7170000000000001,0.10037641154328733,0,0.029826707679729208,-0.014875657956165364,-0.9869216154143322,classic,0,0,0,none,0,0,0,0.7103578633266072,0.029826707679729208,0.09542160753242934,0
sensor,1768474932116,391.9121935278363,0,0.0543212890625,0.0367889404296875,-1.04473876953125,0.0543212890625,0.0367889404296875,-1.04473876953125,-0.0006114617572166026,-0.026088858023285866,0.003954794257879257,10.0032570,10.0004805,2.6115669709152636,358.8341777304847,1003.4027273580432,3.9061144135160673,,0,0.079,0.678,0.10435931307793923,0.04,0.034250690633676514,-0.012543084601308674,-0.9880194500388205,classic,0,0,0,none,0,0,0,1.0751015467245524,0.034250690633676514,0.07819559750742312,0
sensor,1768474933144,396.0294686865013,0,-0.009918212890625,0.0404815673828125,-1.0018463134765625,-0.009918212890625,0.0404815673828125,-1.0018463134765625,0.004546282347291708,0.01013865415006876,0.01564127765595913,10.0032938,10.0004846,2.61218660571039,3.014803486802891,1003.3599681751803,3.8708694518104245,,0,0.112,0.637,0.14953271028037385,0.048,0.0324662546514509,-0.00822647917855997,-0.9865745371499542,classic,0,0,0,none,0,0,0,0.5930206189808988,0.0324662546514509,0.06668206548198004,0
sensor,1768474935136,400.2017438191325,0,0.09100341796875,0.0006256103515625,-1.0134429931640625,0.09100341796875,0.0006256103515625,-1.0134429931640625,0.02575969137251377,-0.09108836203813553,0.02611788734793663,10.0033303,10.0004933,2.586475608922327,10.981593239858231,1002.9923181757331,3.900877095124737,,0,0.318,0.43900000000000006,0.42007926023778064,0.04,0.032621925584709006,-0.008715225623923835,-0.9874762895689059,classic,0,0,0,none,0,0,0,0.760136864855141,0.032621925584709006,0.06489941142258068,0
sensor,1768474936132,403.74602506138865,0,0.076751708984375,0.01556396484375,-0.9383087158203125,0.076751708984375,0.01556396484375,-0.9383087158203125,-0.0004950816510245204,-0.0412566252052784,0.0032051142770797014,10.0033622,10.0004936,2.5817288560798355,6.242056149522421,1002.8364208796993,3.888187640078774,,0,0.318,0.47800000000000004,0.39949748743718594,0,0.03170137050082983,-0.002922131452846763,-0.98679459689667,classic,0,0,0,none,0,0,0,0.7066238083376584,0.03170137050082983,0.06906321342669858,0
sensor,1768474938124,408.44650101503885,0,-0.022491455078125,-0.0193634033203125,-0.973236083984375,-0.022491455078125,-0.0193634033203125,-0.973236083984375,0.006642722524702549,0.046183474361896515,0.006885070353746414,10.0034044,10.0004929,2.5573885909059944,2.215203101486717,1003.7146411240101,3.8910365832036606,,0,0,0.796,0,0,0.028068727058145528,-0.004427480687974239,-0.9878719354309415,classic,0,0,0,none,0,0,0,0.5527057322118677,0.028068727058145528,0.0549889461389082,0
sensor,1768474939120,411.68686487083073,0,-0.053741455078125,-0.0585174560546875,-1.0480194091796875,-0.053741455078125,-0.0585174560546875,-1.0480194091796875,-0.019879698753356934,-0.08439717441797256,-0.002822950715199113,10.0034336,10.0004938,2.5624696571163734,2.3167910788391914,1003.3567971466109,3.885111620904378,,0,0.159,0.598,0.21003963011889035,0.04,0.027555735948408624,-0.001518412315544939,-0.9880440657474509,classic,0,0,0,none,0,0,0,0.5657839879117137,0.027555735948408624,0.11657930195319387,0
sensor,1768474941120,415.85110907214846,0,0.0159454345703125,0.0148773193359375,-0.9764862060546875,0.0159454345703125,0.0148773193359375,-0.9764862060546875,-0.014156032353639603,0.1665961742401123,0.0022242721170186996,10.0034710,10.0004961,2.544942187626411,2.2234811112736605,1003.2060603974387,3.9360551984403793,,0,0.16,0.558,0.2228412256267409,0.079,0.029638100536180243,-0.0032836277779942293,-0.9884802299073017,classic,0,0,0,none,0,0,0,0.774576947498108,0.029638100536180243,0.025842354511337887,0
sensor,1768474942111,419.44220046528153,0,0.05755615234375,-0.069732666015625,-1.0142364501953125,0.05755615234375,-0.069732666015625,-1.0142364501953125,-0.038779351860284805,-0.1293657124042511,0.004573180340230465,10.0035033,10.0004964,2.553175106968679,1.629980018262806,1002.8897545821965,3.915693271500465,,0,0.159,0.598,0.21003963011889035,0.04,0.03260220688108405,-0.0014879849097615928,-0.9889766454661986,classic,0,0,0,none,0,0,0,0.7027412697242278,0.03260220688108405,0.07731572543348307,0
sensor,1768474944140,423.98971097901864,0,-0.03057861328125,0.0190582275390625,-0.964691162109375,-0.03057861328125,0.0190582275390625,-0.964691162109375,-0.005832056514918804,0.024818263947963715,-0.0009150621481239796,10.0035441,10.0004959,2.556678163225168,0.134731661544515,1003.2159092789516,3.9603238512812506,,0,0.12,0.6040000000000001,0.16574585635359113,0.073,0.03119433600961871,-0.0000627625319413659,-0.9895032407213198,classic,0,0,0,none,0,0,0,0.6894841217987284,0.03119433600961871,0.069609499767999,0
sensor,1768474945136,427.15543384563205,0,-0.007080078125,-0.2809906005859375,-1.01055908203125,-0.007080078125,-0.2809906005859375,-1.01055908203125,-0.03208816051483154,-0.21336767077445984,-0.003855990944430232,10.0035725,10.0004982,2.5893404871814987,1.7152594884495955,1003.1881109196693,3.955960847586495,,0,0.2,0.557,0.2642007926023778,0.039,0.03199085092145267,-0.0016846589109201495,-0.9902555725894475,classic,0,0,0,none,0,0,0,1.110615881645994,0.03199085092145267,0.28417621532724674,0
sensor,1768474947128,430.92002240068433,0,0.02484130859375,0.0365753173828125,-1.0050811767578125,0.02484130859375,0.0365753173828125,-1.0050811767578125,0.00321949552744627,0.005030711181461811,0.003988616168498993,10.0036063,10.0005004,2.5737427289658283,2.252144319127302,1003.675449386239,4.001307906084657,,0,0.199,0.597,0.25,0,0.029995622909565898,0.0005577068031298779,-0.9893161072816592,classic,0,0,0,none,0,0,0,0.40758936245239075,0.029995622909565898,0.039852416351295106,0
sensor,1768474948124,434.44739947457975,0,-0.1509857177734375,-0.2772369384765625,-1.033935546875,-0.1509857177734375,-0.2772369384765625,-1.033935546875,0.012366654351353645,0.03570473566651344,-0.019663715735077858,10.0036369,10.0005088,2.5634503955682706,4.155898444913407,1003.8463269080967,4.012695709910167,,0,0.199,0.5980000000000001,0.24968632371392718,0,0.024168879410789795,-0.005558440052639614,-0.989974922886542,classic,0,0,0,none,0,0,0,2.609514096823599,0.024168879410789795,0.32786143376680255,0
sensor,1768474949120,437.5585567802453,0,0.031982421875,0.12548828125,-1.0054931640625,0.031982421875,0.12548828125,-1.0054931640625,-0.0054632085375487804,0.014364824630320072,-0.0201039370149374,10.0036649,10.0005070,2.564997058101124,3.4966467281305893,1003.9749904479831,4.028388731161699,,0,0.08,0.7170000000000001,0.10037641154328733,0,0.020382410334432836,-0.0006737863077997295,-0.9901805176075988,classic,0,0,0,none,0,0,0,1.361639592709714,0.020382410334432836,0.12825752759060527,0
sensor,1768474951119,442.17254382433066,0,0.0030059814453125,-0.2351531982421875,-0.988525390625,0.0030059814453125,-0.2351531982421875,-0.988525390625,0.01816488988697529,0.13107359409332275,0.002910036128014326,10.0037062,10.0005104,2.569625583796605,3.493378547758438,1003.534048714675,4.046359114234198,,0,0.16,0.637,0.20075282308657466,0,0.017345407166312707,-0.006989060818316522,-0.9916664763500513,classic,0,0,0,none,0,0,0,2.52694855115822,0.017345407166312707,0.2297847898054569,0
sensor,1768474952118,445.2477585338765,0,0.0540924072265625,0.0876312255859375,-0.9761810302734375,0.0540924072265625,0.0876312255859375,-0.9761810302734375,0.009860353544354439,-0.044973067939281464,0.008154332637786865,10.0037338,10.0005119,2.5827946427775754,2.129923102882402,1003.9158143308014,4.065450036034756,,0,0.08,0.4870000000000001,0.14109347442680775,0.239,0.021158806040983868,0.0015589741994821928,-0.9906745818340119,classic,0,0,0,none,0,0,0,1.3619422408074062,0.021158806040983868,0.09375929751863564,0
sensor,1768474954140,450.24122137662806,0,0.1103668212890625,-0.07550048828125,-1.00091552734375,0.1103668212890625,-0.07550048828125,-1.00091552734375,-0.000023435817638528533,-0.09755904972553253,0.003943342715501785,10.0037784,10.0005176,2.599820196835077,4.534649950104176,1004.0709272669628,4.049669999900294,,0,0.121,0.676,0.15181932245922208,0,0.025734281937315705,-0.00904485044396328,-0.9889449567074027,classic,0,0,0,none,0,0,0,1.9156153020108897,0.025734281937315705,0.10881369987793166,0
sensor,1768474956132,455.39292571536447,0,0.110198974609375,0.0194854736328125,-1.001190185546875,0.110198974609375,0.0194854736328125,-1.001190185546875,0.008066981099545956,0.07640955597162247,0.0033364081755280495,10.0038246,10.0005145,2.601303543067889,3.0449938313808653,1004.4721615770832,4.005761680290807,,0,0.119,0.678,0.14930991217063988,0,0.03178530806799181,0.0023549657105724495,-0.9867526256357732,classic,0,0,0,none,0,0,0,0.7504018169604478,0.03178530806799181,0.081961019301594,0
sensor,1768474958124,460.86065039782494,0,0.057769775390625,0.0457611083984375,-1.067596435546875,0.057769775390625,0.0457611083984375,-1.067596435546875,0.044316064566373825,-0.04416240006685257,0.01452834252268076,10.0038737,10.0005125,2.6020073541881805,356.07579635300505,1004.9839013889432,3.901171228435641,,0,0.04,0.518,0.07168458781362007,0.239,0.03450424801304015,0.00033627681573217364,-0.9877501175879171,classic,0,0,0,none,0,0,0,0.8600355506898727,0.03450424801304015,0.09523977086423066,0
sensor,1768474960116,466.03468530975243,0,0.0211639404296875,0.0316619873046875,-1.0194091796875,0.0211639404296875,0.0316619873046875,-1.0194091796875,0.019047727808356285,-0.01787859946489334,-0.003050118451938033,10.0039197,10.0005200,2.612546876973611,1.9119365351451043,1004.6236217319965,3.864151486929511,,0,0,0.558,0,0.239,0.03167376328586669,-0.010088365058048184,-0.9888834153936606,classic,0,0,0,none,0,0,0,1.2278152697480202,0.03167376328586669,0.05304181930030197,0
sensor,1768474962111,470.8146237075194,0,0.0431671142578125,0.00213623046875,-0.9357147216796875,0.0431671142578125,0.00213623046875,-0.9357147216796875,-0.022855514660477638,0.08078033477067947,-0.0048890309408307076,10.0039623,10.0005254,2.605381222925842,4.920099082236723,1004.6278208857402,3.869124846071272,,0,0.278,0.47800000000000004,0.36772486772486773,0.04,0.037305118867655286,0.0008980933370272153,-0.9894737142616877,classic,0,0,0,none,0,0,0,0.6057281818547476,0.037305118867655286,0.05436364066237432,0
sensor,1768474964140,476.18589175662794,0,-0.0532073974609375,-0.046875,-1.0536346435546875,-0.0532073974609375,-0.046875,-1.0536346435546875,0.016535300761461258,0.10657224804162979,0.010543720796704292,10.0040105,10.0005216,2.599036134615987,353.4672226593044,1005.4963979888707,3.9429057463163204,,0,0.439,0.31900000000000006,0.579155672823219,0.039,0.04080410385689643,0.00028091498348049393,-0.9898114293152507,classic,0,0,0,none,0,0,0,0.8968609004650533,0.04080410385689643,0.12364360309438714,0
sensor,1768474966132,481.2866226627773,0,0.018829345703125,0.0311431884765625,-1.0196533203125,0.018829345703125,0.0311431884765625,-1.0196533203125,0.012561331503093243,-0.03355822712182999,0.00008069378236541525,10.0040558,10.0005292,2.6022777468387597,1.7160149914307083,1005.1674077175558,3.9120434625780227,,0,0,0.797,0,0,0.04047372179434023,-0.008575766217267211,-0.9912600906138583,classic,0,0,0,none,0,0,0,0.5953091194560792,0.04047372179434023,0.053674833242510586,0
sensor,1768474968124,486.12803698261683,0,0.071807861328125,-0.039703369140625,-0.9591064453125,0.071807861328125,-0.039703369140625,-0.9591064453125,0.006044044159352779,0.16767607629299164,0.00851412583142519,10.0040992,10.0005271,2.5994666609814407,5.8041587336172284,1005.2744502276182,3.935831045625747,,0,0.119,0.43900000000000006,0.21326164874551967,0.239,0.037855402341002244,0.0032913262406630115,-0.9916861044447822,classic,0,0,0,none,0,0,0,0.5515971631140957,0.037855402341002244,0.06405998529893518,0
sensor,1768474970116,491.39707000585594,0,0.0111083984375,-0.028045654296875,-1.0144500732421875,0.0111083984375,-0.028045654296875,-1.0144500732421875,0.03417714312672615,-0.05739990994334221,-0.006570551078766584,10.0041464,10.0005322,2.5936207951900565,2.2014346840280874,1005.1054688552395,3.8885112816189213,,0,0.08,0.6380000000000001,0.11142061281337046,0.079,0.037618817428048096,0.00288343633173803,-0.9911657474699285,classic,0,0,0,none,0,0,0,0.849342085382607,0.037618817428048096,0.047156682689099394,0
sensor,1768474971120,494.4538642902118,0,0.080780029296875,-0.00994873046875,-0.9908294677734375,0.080780029296875,-0.00994873046875,-0.9908294677734375,-0.028318190947175026,-0.07290057092905045,-0.008822520263493061,10.0041739,10.0005325,2.5895087566113486,6.130524115783427,1005.2548122946173,3.8517211203041763,,0,0.159,0.517,0.23520710059171596,0.12,0.038865450246693585,0.0046179591178760375,-0.9914413566389517,classic,0,0,0,none,0,0,0,0.41421859319209287,0.038865450246693585,0.044600868084079426,0
sensor,1768474973144,499.0693308017748,0,0.04522705078125,-0.0005340576171875,-0.975372314453125,0.04522705078125,-0.0005340576171875,-0.975372314453125,0.01660267822444439,0.051604073494672775,0.0046488139778375626,10.0042148,10.0005394,2.571472042562391,4.372205226695178,1004.777952298522,3.861711732877196,,0,0.16,0.636,0.20100502512562812,0,0.03366042540987291,0.0012778145311364872,-0.9911225025796563,classic,0,0,0,none,0,0,0,0.4017620839201044,0.03366042540987291,0.019723554183163967,0
sensor,1768474974140,502.2754854832993,0,-0.0098724365234375,-0.0499420166015625,-0.9558868408203125,-0.0098724365234375,-0.0499420166015625,-0.9558868408203125,-0.023090938106179237,-0.07207632064819336,0.017042366787791252,10.0042435,10.0005425,2.5775573220560726,4.870756354603491,1004.524826948531,3.8498762507591584,,0,0.159,0.439,0.26588628762541805,0.199,0.032849782384139166,0.0026105874142615484,-0.9913552553261576,classic,0,0,0,none,0,0,0,0.6956191284181146,0.032849782384139166,0.07683660354703799,0
sensor,1768474976132,507.0322472985307,0,0.07415771484375,-0.00140380859375,-0.9821624755859375,0.07415771484375,-0.00140380859375,-0.9821624755859375,-0.014478009194135666,-0.10537169873714447,0.014312094077467918,10.0042860,10.0005469,2.5782961119182906,5.461730362802359,1004.3236868400127,3.8454917244094413,,0,0.12,0.557,0.17725258493353027,0.119,0.02512809290036222,0.0023584325352904085,-0.99044999519101,classic,0,0,0,none,0,0,0,0.5748604306814238,0.02512809290036222,0.05011782554029038,0
sensor,1768474977128,510.1835650166782,0,0.0951080322265625,-0.0591583251953125,-1.0131988525390625,0.0951080322265625,-0.0591583251953125,-1.0131988525390625,-0.0336943157017231,-0.05564248934388161,0.013575729914009571,10.0043142,10.0005498,2.608210915865161,4.908482840761218,1004.1595363831148,3.7878795099966553,,0,0.199,0.5980000000000001,0.24968632371392718,0,0.024851938149390372,0.002430425270141761,-0.9911958160799649,classic,0,0,0,none,0,0,0,0.6796998790080284,0.024851938149390372,0.09646789333964743,0
sensor,1768474979120,514.796455106549,0,0.04876708984375,0.00537109375,-0.9628143310546875,0.04876708984375,0.00537109375,-0.9628143310546875,-0.0009086705395020545,-0.014318219386041164,0.0005440838285721838,10.0043556,10.0005529,2.615592707608782,4.806994433120842,1004.4522974397987,3.673665796534077,,0,0.079,0.7180000000000001,0.09912170639899623,0,0.02564070494204904,0.003946110986760618,-0.9923047681860864,classic,0,0,0,none,0,0,0,0.39808057101898553,0.02564070494204904,0.03769241033312176,0
sensor,1768474980116,517.9106034062937,0,0.0060882568359375,-0.182830810546875,-0.9891204833984375,0.0060882568359375,-0.182830810546875,-0.9891204833984375,-0.013739780522882938,0.0008380967774428427,0.001743305241689086,10.0043835,10.0005552,2.6442313190775937,4.457894085433572,1004.3625255711377,3.6925769003225217,,0,0.114,0.4780000000000001,0.19256756756756754,0.205,0.02683024609489679,0.002761086798978125,-0.9926210875290086,classic,0,0,0,none,0,0,0,0.8241526317105977,0.02683024609489679,0.18771877674080328,0
sensor,1768474982148,522.7917540548335,0,0.0445709228515625,0.03314208984375,-0.9770660400390625,0.0445709228515625,0.03314208984375,-0.9770660400390625,0.0017025588313117623,-0.012528841383755207,0.012226039543747902,10.0044274,10.0005556,2.6671389106119916,1.6877675872085658,1004.3788387235254,3.6858229535110927,,0,0.278,0.47900000000000004,0.3672391017173051,0.04,0.025640077946241825,0.004387045807719154,-0.9900534196217178,classic,0,0,0,none,0,0,0,0.37166065165085077,0.025640077946241825,0.03698030169337243,0
sensor,1768474984140,527.400638349693,0,0.05987548828125,0.1889801025390625,-0.9932098388671875,0.05987548828125,0.1889801025390625,-0.9932098388671875,0.008637962862849236,-0.05937863886356354,0.009982859715819359,10.0044687,10.0005596,2.6408427336979634,3.8417671403084994,1003.9372765161097,3.708801562125376,,0,0.239,0.518,0.3157199471598415,0.04,0.020362407688951492,-0.0007557138561757523,-0.9908881783175925,classic,0,0,0,none,0,0,0,1.1968889761871684,0.020362407688951492,0.194794387966547,0
sensor,1768474985136,530.8138663196496,0,0.015533447265625,0.0279083251953125,-1.0035400390625,0.015533447265625,0.0279083251953125,-1.0035400390625,-0.010638795793056488,-0.01817847043275833,-0.00803049560636282,10.0044993,10.0005614,2.6377241371763156,3.771784797819618,1004.2975868666545,3.7036325883630483,,0,0.08,0.686,0.10443864229765012,0.031,0.022084004750366645,0.0032173236100885637,-0.9918681168910587,classic,0,0,0,none,0,0,0,0.4440543890828584,0.022084004750366645,0.0282265225838386,0
sensor,1768474987128,534.8998324564542,0,0.055389404296875,0.1585845947265625,-0.992828369140625,0.055389404296875,0.1585845947265625,-0.992828369140625,-0.002499643014743924,0.007268032990396023,0.008220112882554531,10.0045359,10.0005645,2.5843110573056904,3.509771654772078,1004.362619237043,3.7726670226935384,,0,0.279,0.399,0.4115044247787611,0.119,0.027410583997388455,0.001968931061444708,-0.9911795699857364,classic,0,0,0,none,0,0,0,1.455986626454223,0.027410583997388455,0.15990325295650645,0
sensor,1768474988124,538.223519487126,0,0.0528717041015625,0.0398406982421875,-0.9873504638671875,0.0528717041015625,0.0398406982421875,-0.9873504638671875,0.004596882499754429,0.017612282186746597,0.014466024935245514,10.0045658,10.0005664,2.566551156063719,3.301422466478065,1003.9467118261382,3.7665918089717865,,0,0.159,0.479,0.24921630094043887,0.159,0.026834446829764703,0.0047972707986406495,-0.9942339605617863,classic,0,0,0,none,0,0,0,0.48218080458187834,0.026834446829764703,0.04441896234749698,0
sensor,1768474990118,542.3936587106406,0,0.0150299072265625,0.0547332763671875,-1.00799560546875,0.0150299072265625,0.0547332763671875,-1.00799560546875,-0.006165218073874712,-0.05366189777851105,-0.0033388049341738224,10.0046033,10.0005664,2.5029252937704873,358.73308108833686,1004.0599606987089,3.797878562852445,,0,0.12,0.677,0.15056461731493098,0,0.02942596943946691,0.003156090401202293,-0.9929231473331328,classic,0,0,0,none,0,0,0,1.496464015022596,0.02942596943946691,0.0559089588994252,0
sensor,1768474991116,546.2367171455422,0,0.0514068603515625,0.004730224609375,-1.0014190673828125,0.0514068603515625,0.004730224609375,-1.0014190673828125,0.008559132926166058,0.02262461930513382,0.004269846249371767,10.0046378,10.0005677,2.4974746452409313,0.7302630135092633,1003.4661864312366,3.7497296150030164,,0,0.199,0.44100000000000006,0.3109375,0.157,0.029963764992978648,0.004381699917270729,-0.9919496894953672,classic,0,0,0,none,0,0,0,0.23172954534026743,0.029963764992978648,0.023561290099339556,0
sensor,1768474993144,550.1293062836139,0,-0.0079498291015625,0.085296630859375,-1.0004425048828125,-0.0079498291015625,0.085296630859375,-1.0004425048828125,-0.007505054119974375,0.03843101114034653,0.008523979224264622,10.0046728,10.0005691,2.445384047614057,359.16325262552493,1003.6892017452046,3.762621960687998,,0,0.239,0.5650000000000001,0.29726368159203975,0,0.03296343840470404,0.002027484776762685,-0.9904009635034388,classic,0,0,0,none,0,0,0,1.1895968866974809,0.03296343840470404,0.0937881709234537,0
sensor,1768474994140,553.7282097321787,0,0.0314483642578125,0.06829833984375,-1.0378265380859375,0.0314483642578125,0.06829833984375,-1.0378265380859375,0.0153738958761096,-0.0019206717843189836,0.006985471583902836,10.0047051,10.0005680,2.438516963585207,358.3013049048399,1003.561062307097,3.715692350713772,,0,0.08,0.7170000000000001,0.10037641154328733,0,0.03230385392064244,0.003756454936437517,-0.989676911874348,classic,0,0,0,none,0,0,0,0.5604300894273067,0.03230385392064244,0.08093275373901385,0
sensor,1768474996132,558.1656831679132,0,-0.027496337890625,0.0129852294921875,-0.9828033447265625,-0.027496337890625,0.0129852294921875,-0.9828033447265625,-0.010656106285750866,-0.11352283507585526,0.007109308615326881,10.0047450,10.0005690,2.4062281325609023,0.10940048196115602,1003.5842636944726,3.6874479011975927,,0,0.239,0.518,0.3157199471598415,0.04,0.042276826867135985,0.00007270588516653546,-0.9898836805428596,classic,0,0,0,none,0,0,0,0.8999075982359068,0.042276826867135985,0.07166864360645493,0
sensor,1768474997128,561.7770153316816,0,0.0499725341796875,0.0017242431640625,-0.978515625,0.0499725341796875,0.0017242431640625,-0.978515625,-0.0054520233534276485,-0.0153778912499547,-0.007119428366422653,10.0047772,10.0005643,2.419738330466348,355.81559150759074,1002.6586640607566,3.6684318762665695,,0,0.199,0.597,0.25,0,0.04330726016655117,0.0017019774115681662,-0.988587715477741,classic,0,0,0,none,0,0,0,0.4490036117477655,0.04330726016655117,0.012138497754037858,0
sensor,1768474999120,565.8140872282775,0,0.024993896484375,-0.052337646484375,-1.050445556640625,0.024993896484375,-0.052337646484375,-1.050445556640625,0.026851586997509003,-0.19104479253292084,0.04107419773936272,10.0048132,10.0005689,2.402791029337609,2.530069424689973,1003.3393109003082,3.6658033749260746,,0,0.12,0.676,0.1507537688442211,0,0.046178790144223034,0.00020397973135466272,-0.9897018680035361,classic,0,0,0,none,0,0,0,0.8191756604681463,0.046178790144223034,0.0834789255189292,0
sensor,1768475000116,569.7052145574758,0,0.0379791259765625,0.0035247802734375,-0.939422607421875,0.0379791259765625,0.0035247802734375,-0.939422607421875,-0.003406449221074581,-0.03231026977300644,0.002016279147937894,10.0048482,10.0005678,2.41955095663548,0.2652573145750757,1003.1209010751918,3.6483435161476616,,0,0.119,0.5980000000000001,0.16596931659693162,0.08,0.04158853063636957,0.0024757586259273176,-0.990259018771469,classic,0,0,0,none,0,0,0,0.5094932587573394,0.04158853063636957,0.05123133659753351,0
sensor,1768475002115,574.1302660598861,0,0.084259033203125,0.01458740234375,-0.9793701171875,0.084259033203125,0.01458740234375,-0.9793701171875,-0.011788749136030674,0.1854710578918457,-0.01116397138684988,10.0048879,10.0005708,2.4187312857165746,2.7105484960887685,1003.2843455700204,3.5963968664361032,,0,0.119,0.638,0.1571994715984148,0.04,0.04259941502231009,0.002190879737470083,-0.9904980972942343,classic,0,0,0,none,0,0,0,0.9560924353165801,0.04259941502231009,0.04509225860411881,0
sensor,1768475003143,577.704135431311,0,-0.08880615234375,-0.017974853515625,-1.02484130859375,-0.08880615234375,-0.017974853515625,-1.02484130859375,0.006923153530806303,-0.032524120062589645,0.0015632755821570754,10.0049200,10.0005719,2.446395932067858,2.045398111623623,1003.2992052407935,3.618665671855062,,0,0.079,0.677,0.10449735449735449,0.04,0.041606290683876855,0.004395573469311436,-0.990184801655702,classic,0,0,0,none,0,0,0,0.6636022457862303,0.041606290683876855,0.1374678744386616,0
sensor,1768475005136,582.0701240652875,0,0.06854248046875,0.01708984375,-0.964874267578125,0.06854248046875,0.01708984375,-0.964874267578125,0.002740659052506089,0.005141498986631632,0.0027153589762747288,10.0049591,10.0005751,2.4583004152017702,2.912688998253845,1003.3061224231496,3.610387858125682,,0,0.04,0.757,0.050188205771643665,0,0.04060362526942304,0.0017243872545175574,-0.9898263297772332,classic,0,0,0,none,0,0,0,0.4343385065124871,0.04060362526942304,0.040691508758337554,0
sensor,1768475006131,585.7015336044743,0,-0.007476806640625,-0.0843658447265625,-1.0254058837890625,-0.007476806640625,-0.0843658447265625,-1.0254058837890625,-0.029282255098223686,0.020905815064907074,-0.0019230686593800783,10.0049918,10.0005762,2.526037681042491,2.133255476416754,1003.1597098819911,3.59192643164272,,0,0.199,0.43799999999999994,0.31240188383045525,0.159,0.03681243583042346,0.0022241227553517996,-0.9902515486716831,classic,0,0,0,none,0,0,0,0.87079988273669,0.03681243583042346,0.10393722207368226,0
sensor,1768475008123,590.2246212794928,0,0.066864013671875,0.0446014404296875,-0.94580078125,0.066864013671875,0.0446014404296875,-0.94580078125,-0.004017910920083523,0.03987710922956467,-0.0041244374588131905,10.0050323,10.0005793,2.5658589852225053,4.3964161138654525,1002.8516170689836,3.4999649617163464,,0,0.12,0.677,0.15056461731493098,0,0.034760463493604475,0.001504928192351393,-0.9896719563918102,classic,0,0,0,none,0,0,0,0.5912407568957811,0.034760463493604475,0.06972171075770457,0
sensor,1768475009120,593.3406669750916,0,0.03082275390625,-0.3547210693359375,-0.9627532958984375,0.03082275390625,-0.3547210693359375,-0.9627532958984375,0.0282867643982172,0.06185005232691765,0.012500612065196037,10.0050603,10.0005790,2.62001575955118,2.2224431774233766,1002.9909114902839,3.4505587807424716,,0,0.12,0.637,0.15852047556142668,0.04,0.03340305073064731,-0.0037930232313076826,-0.9902209535019465,classic,0,0,0,none,0,0,0,1.9710711104498662,0.03340305073064731,0.35377972757462445,0
sensor,1768475011114,598.1851824407007,0,0.0523834228515625,0.047332763671875,-1.009796142578125,0.0523834228515625,0.047332763671875,-1.009796142578125,-0.008244347758591175,-0.1098460704088211,0.00415453128516674,10.0051037,10.0005830,2.6740072708215843,4.0417069357948625,1002.6038768794388,3.4502661184781394,,0,0.12,0.47800000000000004,0.20066889632107018,0.199,0.035604936695287116,0.0029136552264571094,-0.9913613514506525,classic,0,0,0,none,0,0,0,0.46242911464144004,0.035604936695287116,0.05119137003881619,0
sensor,1768475013143,602.462424874627,0,0.052947998046875,0.112152099609375,-0.9960174560546875,0.052947998046875,0.112152099609375,-0.9960174560546875,0.0033603766933083534,0.036017388105392456,0.0001203748834086582,10.0051422,10.0005832,2.648569424862288,2.035524527359092,1003.9251078590751,3.3994137077278546,,0,0.08,0.7170000000000001,0.10037641154328733,0,0.02944552376372483,0.002475578076057304,-0.9912843817301786,classic,0,0,0,none,0,0,0,1.6345443362488719,0.02944552376372483,0.11283038758175568,0
sensor,1768475014139,606.0840581294522,0,0.0676116943359375,0.0388031005859375,-0.9882354736328125,0.0676116943359375,0.0388031005859375,-0.9882354736328125,-0.012985040433704853,-0.10648462921380997,0.0020325244404375553,10.0051748,10.0005825,2.644918282099958,0.05547414840065201,1003.4262694260105,3.4174153570811656,,0,0.08,0.7170000000000001,0.10037641154328733,0,0.029483683021135833,0.0039841105215689876,-0.9914068918919728,classic,0,0,0,none,0,0,0,0.46687010292542463,0.029483683021135833,0.051991623562671924,0
sensor,1768475016131,610.1364296660538,0,0.0227813720703125,0.0352325439453125,-1.0403900146484375,0.0227813720703125,0.0352325439453125,-1.0403900146484375,-0.004221376497298479,0.011226022616028786,-0.017595771700143814,10.0052112,10.0005821,2.575882065601161,358.3025556009361,1003.748469715938,3.4094174954902807,,0,0.159,0.638,0.19949811794228356,0,0.02074747695147401,0.003141986238897877,-0.9923187761519552,classic,0,0,0,none,0,0,0,1.2736548419173508,0.02074747695147401,0.05812473639974384,0
sensor,1768475017127,613.8766354136407,0,0.1014251708984375,0.031524658203125,-1.0203094482421875,0.1014251708984375,0.031524658203125,-1.0203094482421875,0.005322061013430357,0.0834173932671547,-0.0015984292840585113,10.0052448,10.0005824,2.559118798623331,359.30927489831714,1003.6605682568625,3.3571501539673907,,0,0.16,0.279,0.3644646924829157,0.358,0.02416007428855519,0.004040638196630137,-0.9925549043761083,classic,0,0,0,none,0,0,0,0.5891569205274872,0.02416007428855519,0.0870120851788039,0
sensor,1768475019119,617.7542250521783,0,-0.1061248779296875,-0.0527496337890625,-0.957611083984375,-0.1061248779296875,-0.0527496337890625,-0.957611083984375,-0.016924388706684113,-0.026249980553984642,0.006931142881512642,10.0052796,10.0005792,2.49200389478769,352.9876600174428,1004.2015146017075,3.408843821437348,,0,0.119,0.638,0.1571994715984148,0.04,0.027990282692394636,0.0031578309501503,-0.9920553676303784,classic,0,0,0,none,0,0,0,1.1947462215654325,0.027990282692394636,0.15007865448960528,0
sensor,1768475020115,621.4468355580095,0,0.0020599365234375,0.053680419921875,-0.9859466552734375,0.0020599365234375,0.053680419921875,-0.9859466552734375,0.032098013907670975,0.06740407645702362,0.009152219630777836,10.0053128,10.0005796,2.4770612662995553,356.7325437902358,1003.8949454622343,3.369877443457715,,0,0.239,0.43800000000000006,0.3530280649926144,0.119,0.028587759142811302,0.004975214586045666,-0.9929715233911176,classic,0,0,0,none,0,0,0,0.4935754271920611,0.028587759142811302,0.05618505006955101,0
sensor,1768475022117,625.7812278665817,0,0.03179931640625,-0.012054443359375,-0.9723052978515625,0.03179931640625,-0.012054443359375,-0.9723052978515625,-0.00720438314601779,0.10992597043514252,-0.006383863277733326,10.0053516,10.0005827,2.4368620115449424,2.452606473270427,1004.3107059188187,3.3500431686479875,,0,0.159,0.638,0.19949811794228356,0,0.0325194090251049,0.0017142255315005057,-0.9924739271548179,classic,0,0,0,none,0,0,0,0.7023978685987678,0.0325194090251049,0.024553658254152184,0
sensor,1768475023143,629.2369971139626,0,0.1043701171875,-0.02825927734375,-1.0029296875,0.1043701171875,-0.02825927734375,-1.0029296875,-0.019306320697069168,0.163535937666893,-0.0026133600622415543,10.0053826,10.0005853,2.439660412144283,2.8821184337335275,1003.6976107228547,3.285765520244149,,0,0.119,0.639,0.15699208443271767,0.039,0.03467703115136363,0.004439576556764811,-0.9921084950491887,classic,0,0,0,none,0,0,0,0.6032827881221654,0.03467703115136363,0.0781302130249468,0
sensor,1768475025135,633.8634124525664,0,0.0449371337890625,0.0036468505859375,-0.9940338134765625,0.0449371337890625,0.0036468505859375,-0.9940338134765625,0.0027137610595673323,-0.01655074767768383,0.017711086198687553,10.0054242,10.0005868,2.4336159058747078,1.2354179463918167,1003.8361221663654,3.2813615865539156,,0,0.159,0.558,0.22175732217573219,0.08,0.035737933837928726,0.0022223354753328375,-0.9915846034715622,classic,0,0,0,none,0,0,0,0.5641208893330671,0.035737933837928726,0.00967402087144169,0
sensor,1768475026131,637.1006362357973,0,0.0212249755859375,-0.1502227783203125,-1.001190185546875,0.0212249755859375,-0.1502227783203125,-1.001190185546875,-0.027904868125915527,-0.05823507532477379,-0.007167365401983261,10.0054533,10.0005873,2.447710271767764,0.6672206609169645,1003.7222537621856,3.240129423100566,,0,0.12,0.677,0.15056461731493098,0,0.034659331771231976,0.00207558475775648,-0.991332160068607,classic,0,0,0,none,0,0,0,0.7220686194511141,0.034659331771231976,0.153977111197282,0
sensor,1768475028123,641.7165336812326,0,0.023712158203125,0.0297698974609375,-0.9960479736328125,0.023712158203125,0.0297698974609375,-0.9960479736328125,-0.006931142881512642,-0.007571633439511061,0.0022242721170186996,10.0054948,10.0005868,2.4534860845235444,359.65212610557313,1003.8595907315612,3.244875027836588,,0,0.359,0.3980000000000001,0.4742404227212681,0.04,0.03020871593046102,0.0036494422053119134,-0.9910966578921518,classic,0,0,0,none,0,0,0,0.275889147947976,0.03020871593046102,0.027505372459447584,0
sensor,1768475029119,644.9990193545691,0,0.070281982421875,-0.30841064453125,-0.9368133544921875,0.070281982421875,-0.30841064453125,-0.9368133544921875,0.00794687308371067,0.15437306463718414,-0.010573548264801502,10.0055243,10.0005875,2.5026348339061197,0.1493417052963353,1003.6810438679531,3.1998329874592946,,0,0.12,0.637,0.15852047556142668,0.04,0.030563508739687703,-0.00665585799333457,-0.9909123035339282,classic,0,0,0,none,0,0,0,2.8229432816000815,0.030563508739687703,0.31068154399619635,0
sensor,1768475031114,649.8552537954021,0,0.0214385986328125,0.0433349609375,-1.01434326171875,0.0214385986328125,0.0433349609375,-1.01434326171875,-0.018206967040896416,-0.04725220054388046,0.009223858825862408,10.0055680,10.0005879,2.563202492085113,0.126396482941641,1003.2115190261975,3.1996970586336526,,0,0.239,0.47800000000000004,0.33333333333333326,0.08,0.03409572231788027,0.004383986457597306,-0.9908696768082885,classic,0,0,0,none,0,0,0,0.5157330081238584,0.03409572231788027,0.047443045177938806,0
sensor,1768475033143,653.3809206654781,0,0.13800048828125,-0.0041351318359375,-1.0105743408203125,0.13800048828125,-0.0041351318359375,-1.0105743408203125,0.008899219334125519,-0.2010958194732666,0.01474352553486824,10.0055997,10.0005865,2.5330155180547704,359.00159208552066,1002.7254173662513,3.272316198795538,,0,0.079,0.678,0.10435931307793923,0.04,0.029847175243819402,0.0031571816351754255,-0.9904493851236519,classic,0,0,0,none,0,0,0,0.8933495466071402,0.029847175243819402,0.11080524298155385,0
sensor,1768475034139,657.3712743059805,0,-0.01513671875,-0.00689697265625,-1.028961181640625,-0.01513671875,-0.00689697265625,-1.028961181640625,-0.015928633511066437,-0.11213532835245132,0.0017409083666279912,10.0056355,10.0005855,2.530275751575715,358.9792474480162,1002.7896113870665,3.2087003590745544,,0,0.165,0.5680000000000001,0.22510231923601634,0.07,0.0296284546839904,0.0051353125206934445,-0.9909253685447922,classic,0,0,0,none,0,0,0,0.599841218513989,0.0296284546839904,0.06026313449927694,0
sensor,1768475036131,661.6130673018113,0,-0.0148468017578125,-0.00067138671875,-1.0568084716796875,-0.0148468017578125,-0.00067138671875,-1.0568084716796875,0.006786266807466745,0.08192522823810577,0.0035265579354017973,10.0056737,10.0005851,2.4937211809308724,0.010354775905167982,1002.5405605211854,3.2694995677157777,,0,0.159,0.637,0.19974874371859297,0,0.028842480316536256,0.0050151368688449854,-0.9916474392483289,classic,0,0,0,none,0,0,0,0.5879474685755486,0.028842480316536256,0.07905306893851827,0
sensor,1768475037127,664.9566460608967,0,0.04351806640625,-0.0050506591796875,-0.984100341796875,0.04351806640625,-0.0050506591796875,-0.984100341796875,-0.0009837717516347766,0.0031731564085930586,-0.0037318875547498465,10.0057038,10.0005850,2.489666059239505,359.86385482174677,1002.9045524531975,3.2689905559833106,,0,0.119,0.678,0.14930991217063988,0,0.02939991791010585,0.006234002722086214,-0.9915991958209198,classic,0,0,0,none,0,0,0,0.4414931093918142,0.02939991791010585,0.019666123617566672,0
sensor,1768475039119,669.6811930637257,0,0.0317840576171875,0.001007080078125,-1.013397216796875,0.0317840576171875,0.001007080078125,-1.013397216796875,0.014683605171740055,0.009924269281327724,0.011186075396835804,10.0057462,10.0005856,2.4765257283626174,359.6024418416006,1003.3922049095854,3.2154800820072102,,0,0.12,0.677,0.15056461731493098,0,0.02922131885974163,0.0023253516998075134,-0.98951554466595,classic,0,0,0,none,0,0,0,0.5224055741428623,0.02922131885974163,0.024175810642732755,0
sensor,1768475040116,672.8500853454636,0,0.007537841796875,-0.00225830078125,-0.967010498046875,0.007537841796875,-0.00225830078125,-0.967010498046875,0.01532010082155466,0.0951177254319191,-0.0008165251929312944,10.0057747,10.0005854,2.49003805998456,359.854763309223,1003.4100613556802,3.189655520421315,,0,0.12,0.44400000000000006,0.21276595744680848,0.233,0.031391874441719814,0.004689276884885863,-0.9894335094331972,classic,0,0,0,none,0,0,0,0.63052413246672,0.031391874441719814,0.03363570229918369,0
sensor,1768475042115,677.367010006523,0,0.0561981201171875,0.0283660888671875,-0.9909820556640625,0.0561981201171875,0.0283660888671875,-0.9909820556640625,-0.02189624309539795,0.04682369902729988,-0.004218713380396366,10.0058153,10.0005833,2.4945629312400115,357.2713267435561,1003.287502605468,3.233412192778116,,0,0.279,0.518,0.35006273525721454,0,0.035957325967340616,0.003171349189681827,-0.9896182555170642,classic,0,0,0,none,0,0,0,0.5826196681945708,0.035957325967340616,0.03250948865996989,0
sensor,1768475043143,680.7645234493111,0,0.0091094970703125,-0.1563568115234375,-1.0265045166015625,0.0091094970703125,-0.1563568115234375,-1.0265045166015625,0.00046685212873853743,0.10689715296030045,0.008813997730612755,10.0058458,10.0005845,2.5507201882124013,359.7622985566342,1003.1953182248399,3.2050923354579837,,0,0.159,0.597,0.21031746031746032,0.04,0.034446248378956046,0.0032781402469004655,-0.9903692182861085,classic,0,0,0,none,0,0,0,0.7761781487248183,0.034446248378956046,0.16645542944769745,0
sensor,1768475045135,685.014110813465,0,-0.0094451904296875,0.0194549560546875,-0.993194580078125,-0.0094451904296875,0.0194549560546875,-0.993194580078125,-0.017495103180408478,0.005003813188523054,-0.0011835087789222598,10.0058840,10.0005826,2.564666784782135,357.96842297056793,1003.4687618454918,3.198864392183313,,0,0.119,0.677,0.1494974874371859,0,0.028519093785105948,0.004422441454735595,-0.9888039085263188,classic,0,0,0,none,0,0,0,0.450207964225022,0.028519093785105948,0.041273891513508805,0
sensor,1768475046131,688.1686287894868,0,0.0053863525390625,-0.189117431640625,-1.0456695556640625,0.0053863525390625,-0.189117431640625,-1.0456695556640625,-0.010236125439405441,0.046844735741615295,-0.005506617948412895,10.0059123,10.0005841,2.595944103794164,0.24389969621733557,1003.5730926208198,3.1926420857312956,,0,0.12,0.677,0.15056461731493098,0,0.02625497647738833,0.0036206124555936705,-0.9902085517041803,classic,0,0,0,none,0,0,0,0.7559007317755224,0.02625497647738833,0.20265497708851676,0
sensor,1768475048123,693.0015516524032,0,0.030364990234375,0.0350494384765625,-0.99365234375,0.030364990234375,0.0350494384765625,-0.99365234375,0.01182257104665041,0.045042842626571655,0.005515672732144594,10.0059558,10.0005831,2.6120034889061428,357.74853972024266,1004.2707083439454,3.215398213657747,,0,0.438,0.31800000000000006,0.5793650793650794,0.04,0.026175384045516465,0.004308904699899875,-0.9919836151592514,classic,0,0,0,none,0,0,0,0.4772499100431004,0.026175384045516465,0.03122569351120346,0
sensor,1768475050115,697.7976769135947,0,0.055877685546875,0.1433868408203125,-1.0092315673828125,0.055877685546875,0.1433868408203125,-1.0092315673828125,-0.008642490021884441,0.01883547380566597,0.01185106672346592,10.0059989,10.0005820,2.5894382158669287,357.2078026935819,1003.9824346499518,3.2259071176943332,,0,0.079,0.6380000000000001,0.11018131101813108,0.08,0.023666504567991273,0.0004259070133119767,-0.9912686375888988,classic,0,0,0,none,0,0,0,1.138926647028655,0.023666504567991273,0.14838356377898662,0
sensor,1768475052106,703.4607515997961,0,-0.027801513671875,-0.2917633056640625,-0.9760894775390625,-0.027801513671875,-0.2917633056640625,-0.9760894775390625,0.0379822701215744,0.13266989588737488,-0.01224494818598032,10.0060498,10.0005808,2.584360359378476,357.5516858223996,1003.6619510026649,3.1531090934622172,,0,0.12,0.557,0.17725258493353027,0.119,0.030898536277152923,-0.002191396183667734,-0.9930433795407433,classic,0,0,0,none,0,0,0,2.0167456234127368,0.030898536277152923,0.29743484089102135,0
sensor,1768475054139,708.2414837402625,0,0.0394134521484375,0.0642242431640625,-0.9883270263671875,0.0394134521484375,0.0642242431640625,-0.9883270263671875,-0.0062733422964811325,0.00580915343016386,0.00800173357129097,10.0060927,10.0005772,2.5900429271684486,356.67891825763076,1003.9794243555516,3.156224291560349,,0,0.119,0.638,0.1571994715984148,0.04,0.031717711350480404,0.0034822866607200024,-0.9919470835667982,classic,0,0,0,none,0,0,0,0.4012358190458921,0.031717711350480404,0.06164266137983569,0
sensor,1768475058122,717.8621595243906,0,0.065460205078125,0.1083831787109375,-1.0310211181640625,0.065460205078125,0.1083831787109375,-1.0310211181640625,-0.00717482203617692,-0.12761442363262177,0.007671501953154802,10.0061791,10.0005732,2.6390573347240323,356.21918609855896,1003.2398694083095,3.104387920781196,,0,0.16,0.558,0.2228412256267409,0.079,0.03569524700542255,-0.007509546718043,-0.9909261637584469,classic,0,0,0,none,0,0,0,1.7358019785649688,0.03569524700542255,0.12682717014826184,0
sensor,1768475060116,722.1992015984123,0,-0.02777099609375,-0.0045928955078125,-1.023529052734375,-0.02777099609375,-0.0045928955078125,-1.023529052734375,-0.0022189458832144737,-0.04652196168899536,-0.0014405038673430681,10.0062181,10.0005716,2.6839004536801165,355.3563462203847,1003.524947559461,3.081851850578772,,0,0.12,0.5970000000000001,0.16736401673640164,0.08,0.03608606663574247,0.005902481535698721,-0.9911106137500729,classic,0,0,0,none,0,0,0,0.6448070635082291,0.03608606663574247,0.07274349771692405,0
sensor,1768475062107,726.7084349154269,0,0.0318603515625,0.0076141357421875,-0.9994964599609375,0.0318603515625,0.0076141357421875,-0.9994964599609375,-0.012015650048851967,0.0028104339726269245,0.005599296186119318,10.0062586,10.0005716,2.6666636863549074,359.17897098180634,1003.2752939555794,3.0473546844583796,,0,0.199,0.558,0.2628797886393659,0.04,0.03636185932168675,0.002344819555277304,-0.9900411081384589,classic,0,0,0,none,0,0,0,0.5603387083145976,0.03636185932168675,0.011782090193276114,0
sensor,1768475063142,730.4204444573996,0,0.03582763671875,-0.0660400390625,-0.9853668212890625,0.03582763671875,-0.0660400390625,-0.9853668212890625,-0.010914699174463749,0.03177390992641449,0.00350418733432889,10.0062918,10.0005682,2.6743383331566584,357.0938248590739,1003.540828127414,3.0193598701654936,,0,0.08,0.7170000000000001,0.10037641154328733,0,0.03538964620891457,0.003929972406151958,-0.9898937653253288,classic,0,0,0,none,0,0,0,0.44161906005969553,0.03538964620891457,0.07047001950343425,0
sensor,1768475065134,734.1874737161337,0,-0.0083770751953125,0.0184173583984375,-0.960479736328125,-0.0083770751953125,0.0184173583984375,-0.960479736328125,0.0030037793330848217,0.04884423688054085,0.0028093685396015644,10.0063256,10.0005655,2.6521917433565516,357.1237456469432,1003.5909509025514,2.954359457923043,,0,0.12,0.638,0.15831134564643798,0.039,0.03473800698882455,0.002084341692585616,-0.9898256274284831,classic,0,0,0,none,0,0,0,0.5326461113333922,0.03473800698882455,0.05492679836739124,0
sensor,1768475066130,737.6771482493454,0,0.0186920166015625,-0.073150634765625,-0.9976654052734375,0.0186920166015625,-0.073150634765625,-0.9976654052734375,-0.01907169446349144,-0.018094582483172417,0.012567989528179169,10.0063568,10.0005621,2.652683820474963,355.94726583817095,1003.3607761524618,2.948247462821146,,0,0.119,0.5980000000000001,0.16596931659693162,0.08,0.03428218411078546,0.0033573921837577016,-0.9901782597501749,classic,0,0,0,none,0,0,0,0.4544243243333845,0.03428218411078546,0.07883260294528349,0
sensor,1768475068122,742.0840298762315,0,0.052001953125,0.020172119140625,-1.01593017578125,0.052001953125,0.020172119140625,-1.01593017578125,-0.02430240996181965,-0.06406819820404053,0.005709284916520119,10.0063963,10.0005591,2.6449308285546356,355.6857924134172,1003.6741049978882,2.9375678047650995,,0,0.318,0.43800000000000006,0.42063492063492064,0.04,0.034097234529054735,0.0031145005811645927,-0.9912976064191719,classic,0,0,0,none,0,0,0,0.3939468023014654,0.034097234529054735,0.0350796209480817,0
sensor,1768475069118,745.7102502562675,0,-0.037109375,-0.1129150390625,-0.9952545166015625,-0.037109375,-0.1129150390625,-0.9952545166015625,-0.023790018633008003,-0.1402290165424347,-0.012773319147527218,10.0064288,10.0005556,2.6676875535878453,355.36324822162106,1003.3529593180865,2.974240544547296,,0,0.08,0.677,0.10568031704095113,0.04,0.033597367169313545,0.003538677535718335,-0.9917837658201509,classic,0,0,0,none,0,0,0,0.6652138732653075,0.033597367169313545,0.1369674760718765,0
sensor,1768475071116,749.5163161421788,0,0.062164306640625,0.0045623779296875,-0.99114990234375,0.062164306640625,0.0045623779296875,-0.99114990234375,-0.012151471339166164,-0.03135685622692108,-0.00037523938226513565,10.0064630,10.0005549,2.676496101166124,356.92592400913816,1003.0428583016619,2.9311343719114147,,0,0.279,0.518,0.35006273525721454,0,0.0336523815559685,0.0016775401789037218,-0.9911920195470476,classic,0,0,0,none,0,0,0,0.6612238818404265,0.0336523815559685,0.028801536093437927,0
sensor,1768475072146,752.7828275840309,0,-0.01025390625,-0.283050537109375,-0.974578857421875,-0.01025390625,-0.283050537109375,-0.974578857421875,-0.013147227466106415,-0.02214152179658413,-0.00006471481174230576,10.0064924,10.0005554,2.7191229754535513,358.1891499548943,1002.8146271202713,2.9184809045551217,,0,0.279,0.438,0.3891213389121339,0.08,0.036675879197711064,-0.00046372881557403534,-0.9919043483233768,classic,0,0,0,none,0,0,0,1.240885128834058,0.036675879197711064,0.28842274305955096,0
sensor,1768475074138,757.2060706613065,0,0.0440521240234375,0.044891357421875,-0.98602294921875,0.0440521240234375,0.044891357421875,-0.98602294921875,-0.012895292602479458,0.012298744171857834,-0.0054786549881100655,10.0065318,10.0005498,2.7426556455486386,354.6875201189289,1003.3642096957192,2.930375075354051,,0,0.677,0.12,0.849435382685069,0,0.038764517871867736,0.0013947858696993795,-0.9931610600339572,classic,0,0,0,none,0,0,0,0.2938780175606745,0.038764517871867736,0.04461749185462266,0
sensor,1768475076130,760.3764420829011,0,0.0348052978515625,0.09564208984375,-0.9804229736328125,0.0348052978515625,0.09564208984375,-0.9804229736328125,0.016708139330148697,0.05278305336833,0.01221884973347187,10.0065603,10.0005493,2.480185548080301,359.1111807861082,1002.9565101796761,2.930198441045071,,0,0.319,0.47800000000000004,0.4002509410288582,0,0.03580492168659373,-0.0020303934577949063,-0.9921686582100099,classic,0,0,0,none,0,0,0,1.1792349405014702,0.03580492168659373,0.09887564855521484,0
sensor,1768475077126,764.2128460403571,0,-0.00634765625,0.09417724609375,-0.9929656982421875,-0.00634765625,0.09417724609375,-0.9929656982421875,-0.003781156148761511,-0.01420423574745655,0.007040865253657103,10.0065947,10.0005466,2.470789504656073,356.51174782158245,1002.570272074081,2.903833359548844,,0,0.278,0.358,0.4371069182389937,0.16,0.0346267632136968,0.002389600893579957,-0.9921695085631791,classic,0,0,0,none,0,0,0,0.5427377420303965,0.0346267632136968,0.10102631731267903,0
sensor,1768475079118,768.4087944460333,0,0.0191802978515625,0.070098876953125,-1.0123443603515625,0.0191802978515625,0.070098876953125,-1.0123443603515625,-0.00012596751912496984,-0.02911447547376156,0.018506838008761406,10.0066323,10.0005445,2.415321137465022,357.8459272298093,1003.342554198578,2.877173601556838,,0,0.081,0.7160000000000001,0.10163111668757842,0,0.03209080754554828,-0.0001631534881057098,-0.9923765130051667,classic,0,0,0,none,0,0,0,0.9988069245732613,0.03209080754554828,0.07454921884625622,0
sensor,1768475080117,771.7131127640231,0,0.0820465087890625,0.050933837890625,-0.9850921630859375,0.0820465087890625,0.050933837890625,-0.9850921630859375,-0.04471580684185028,-0.176988884806633,0.0012785836588591337,10.0066618,10.0005402,2.400767749946422,355.12389463786764,1003.2765334919095,2.863136239345188,,0,0.239,0.561,0.29874999999999996,0,0.03227848206282121,0.003906634981518125,-0.9938183069749682,classic,0,0,0,none,0,0,0,0.5138986018473376,0.03227848206282121,0.06937265472035191,0
sensor,1768475082111,775.7169112834764,0,0.0419464111328125,0.0619659423828125,-0.9641876220703125,0.0419464111328125,0.0619659423828125,-0.9641876220703125,-0.0003400856803636998,-0.02689339965581894,-0.004619785584509373,10.0066977,10.0005387,2.3380652107197926,357.95707661662493,1002.6974510094151,2.8368697072548974,,0,0.319,0.398,0.4449093444909344,0.08,0.02706640845753119,0.0023555921035845924,-0.9935921496932644,classic,0,0,0,none,0,0,0,0.7495083529246479,0.02706640845753119,0.06845567341354566,0
sensor,1768475083142,779.6758162394568,0,-0.0697021484375,-0.0012664794921875,-1.0081787109375,-0.0697021484375,-0.0012664794921875,-1.0081787109375,0.0014298511669039726,0.008766327053308487,-0.003328951308503747,10.0067332,10.0005354,2.3448188004197448,355.9282369283168,1003.0223878296092,2.8216796589668824,,0,0.08,0.5980000000000001,0.11799410029498525,0.119,0.027686813574792742,0.005321796347494268,-0.9941950766032108,classic,0,0,0,none,0,0,0,0.6924624868412665,0.027686813574792742,0.09910361780485209,0
sensor,1768475085134,784.1534582275524,0,0.0385284423828125,-0.00738525390625,-0.9618377685546875,0.0385284423828125,-0.00738525390625,-0.9618377685546875,-0.0022540995851159096,-0.15006326138973236,-0.001374723738990724,10.0067732,10.0005304,2.342669725268961,352.99020850411586,1004.309962823987,2.8628734034817236,,0,0.239,0.558,0.29987452948557086,0,0.02379784825227069,0.0036724063546043416,-0.9940150856708728,classic,0,0,0,none,0,0,0,1.006579487062737,0.02379784825227069,0.037262477110057285,0
sensor,1768475086130,787.6690989405324,0,0.0032196044921875,0.0279693603515625,-0.98992919921875,0.0032196044921875,0.0279693603515625,-0.98992919921875,0.001820270554162562,0.07920906692743301,0.006934338714927435,10.0068046,10.0005270,2.373717311268958,352.9730365456619,1003.72090446949,2.8215354229898937,,0,0.2,0.518,0.2785515320334262,0.079,0.02189890002042725,0.005303561458587204,-0.9935490784806096,classic,0,0,0,none,0,0,0,0.43276685308085977,0.02189890002042725,0.029741919065721628,0
sensor,1768475088122,792.1056405329962,0,0.074981689453125,-0.0058746337890625,-0.9901885986328125,0.074981689453125,-0.0058746337890625,-0.9901885986328125,0.012540026567876339,0.14975407719612122,-0.006360693834722042,10.0068445,10.0005269,2.397415187640934,356.0928200570628,1004.0436158683151,2.8491770676949852,,0,0.319,0.47800000000000004,0.4002509410288582,0,0.04297060047847719,-0.12081634206219094,-0.9627040652831249,classic,0,0,0,none,0,0,0,1.5679903198035237,0.04297060047847719,0.12305590058735413,0
sensor,1768475089118,795.327929203578,0,0.036102294921875,-0.06451416015625,-1.0279388427734375,0.036102294921875,-0.06451416015625,-1.0279388427734375,-0.014386395923793316,-0.11605043709278107,-0.005585181526839733,10.0068735,10.0005263,2.4770894448160217,357.1548766101606,1004.3369862232357,2.859569754329752,,0,0.079,0.5170000000000001,0.13255033557046977,0.2,0.0470725459276277,-0.10582384341196759,-0.9656338549378114,classic,0,0,0,none,0,0,0,1.0708007884114505,0.0470725459276277,0.0759359358531555,0
sensor,1768475091110,799.9008163952481,0,0.0378875732421875,0.012420654296875,-0.97137451171875,0.0378875732421875,0.012420654296875,-0.97137451171875,-0.008579373359680176,0.06584266573190689,0.003564907470718026,10.0069145,10.0005239,2.5187304728956184,356.2435542916796,1004.3507141461596,2.967421478126105,,0,0,0.756,0,0.04,0.04718562614498438,-0.08260332790019217,-0.9727146584696443,classic,0,0,0,none,0,0,0,1.016576098868068,0.04718562614498438,0.09596704364788027,0
sensor,1768475092113,802.972284505814,0,-0.048797607421875,-0.159149169921875,-1.0215301513671875,-0.048797607421875,-0.159149169921875,-1.0215301513671875,-0.048642370849847794,-0.24058730900287628,0.0120675815269351,10.0069421,10.0005238,2.5730507401315736,357.0651047226477,1004.1094717066735,2.9903991788531123,,0,0.119,0.559,0.17551622418879054,0.119,0.04870273811073999,-0.07185652253524616,-0.975228182764293,classic,0,0,0,none,0,0,0,0.8462207740402956,0.04870273811073999,0.13951470489973294,0
sensor,1768475094138,807.445847895063,0,0.03936767578125,0.04144287109375,-1.0359649658203125,0.03936767578125,0.04144287109375,-1.0359649658203125,-0.017713483422994614,-0.17016907036304474,-0.0025478461757302284,10.0069824,10.0005228,2.5947760838185454,357.84576043521184,1003.7367471661419,3.0192373907985792,,0,0,0.637,0,0.159,0.04478912732917159,-0.0538100539475125,-0.9782578913841434,classic,0,0,0,none,0,0,0,0.7220267441424721,0.04478912732917159,0.11206196139016461,0
sensor,1768475095134,810.8050771418394,0,0.1280059814453125,-0.29156494140625,-0.930694580078125,0.1280059814453125,-0.29156494140625,-0.930694580078125,0.02815493941307068,0.017900703474879265,-0.01769297756254673,10.0070126,10.0005224,2.6438301823682235,358.4647190352406,1003.6654958790168,3.037037284427423,,0,0,0.43800000000000006,0,0.359,0.04700421728772567,-0.051416902484439975,-0.980784309234252,classic,0,0,0,none,0,0,0,1.1519901517585072,0.04700421728772567,0.25964167619381445,0
sensor,1768475097126,815.7548898197579,0,0.0656585693359375,0.029388427734375,-0.9998931884765625,0.0656585693359375,0.029388427734375,-0.9998931884765625,-0.021992117166519165,-0.04978033900260925,0.007983091287314892,10.0070570,10.0005188,2.680312384477619,356.3655888913181,1003.6113789202645,3.0960132623786456,,0,0.318,0.279,0.5326633165829145,0.2,0.04746890916270734,-0.03569731679241336,-0.9819176636621245,classic,0,0,0,none,0,0,0,0.6673891606701501,0.04746890916270734,0.07028092176846837,0
sensor,1768475099120,819.3818547891026,0,0.037200927734375,0.1004180908203125,-0.987396240234375,0.037200927734375,0.1004180908203125,-0.987396240234375,-0.006645119283348322,0.009848902001976967,0.02418176829814911,10.0070896,10.0005184,2.630923594768933,357.08969556207256,1003.296174293384,3.1387014315388906,,0,0.08,0.558,0.12539184952978055,0.159,0.04769187236506982,-0.029576959055622052,-0.9824702755413586,classic,0,0,0,none,0,0,0,1.764089666939625,0.04769187236506982,0.13116651427847664,0
sensor,1768475100114,823.520324522718,0,-0.004241943359375,0.0381622314453125,-1.003753662109375,-0.004241943359375,0.0381622314453125,-1.003753662109375,-0.003619768423959613,-0.03413906320929527,0.000740625080652535,10.0071267,10.0005157,2.617835248464312,356.32627293347963,1003.3970675235614,3.1420997511782156,,0,0,0.56,0,0.237,0.044292611615722725,-0.023145301839158555,-0.9831850764838423,classic,0,0,0,none,0,0,0,0.6674504260295389,0.044292611615722725,0.08125976740015012,0
sensor,1768475102145,827.0184455358744,0,0.01708984375,0.0899505615234375,-1.0187530517578125,0.01708984375,0.0899505615234375,-1.0187530517578125,-0.013532053679227829,-0.15551316738128662,0.0021901836153119802,10.0071581,10.0005162,2.5380039255579154,0.6152335997708895,1003.4544247789308,3.1285286820682723,,0,0.399,0.23900000000000002,0.6253918495297806,0.159,0.04263162652097375,-0.01836458010661658,-0.9841806980836915,classic,0,0,0,none,0,0,0,1.3371068650355662,0.04263162652097375,0.11711798978703512,0
sensor,1768475103142,830.9672570602561,0,-0.0077667236328125,0.074005126953125,-1.0091094970703125,-0.0077667236328125,0.074005126953125,-1.0091094970703125,0.011936021968722343,0.030662838369607925,0.010685667395591736,10.0071934,10.0005117,2.5279701711084375,353.7048489637498,1004.0664398828521,3.1058760794332936,,0,0.079,0.6380000000000001,0.11018131101813108,0.08,0.03936026323027437,-0.011780874658968885,-0.9858609530109762,classic,0,0,0,none,0,0,0,0.913950384201344,0.03936026323027437,0.10110715486798391,0
sensor,1768475105133,835.1832004470474,0,0.0159912109375,0.0099639892578125,-0.9755859375,0.0159912109375,0.0099639892578125,-0.9755859375,0.011886753141880035,0.11581475287675858,0.004662395920604467,10.0072312,10.0005095,2.4802233087724863,354.4135732554915,1002.7474322700873,3.124365225738786,,0,0.279,0.47800000000000004,0.368560105680317,0.04,0.03722240498451766,-0.012389576770932047,-0.9880977904876325,classic,0,0,0,none,0,0,0,0.4749302760034584,0.03722240498451766,0.03343868240859507,0
sensor,1768475106129,838.5570657979184,0,0.028045654296875,-0.015899658203125,-0.95281982421875,0.028045654296875,-0.015899658203125,-0.95281982421875,-0.0222091656178236,-0.04406279698014259,0.012807940132915974,10.0072614,10.0005065,2.4702247327115723,354.8649022353009,1003.1195739991963,3.113612111145952,,0,0.279,0.398,0.4121122599704579,0.12,0.035290782346793136,-0.006754727745728609,-0.9884230740596279,classic,0,0,0,none,0,0,0,0.6283198750246118,0.035290782346793136,0.03765443065346994,0
sensor,1768475108127,843.0331204841614,0,0.0558929443359375,0.0053253173828125,-0.986602783203125,0.0558929443359375,0.0053253173828125,-0.986602783203125,0.00478410255163908,-0.04029522463679314,0.011021225713193417,10.0073016,10.0005037,2.4450152275844483,355.7168789598821,1003.344632579945,3.0877924792637175,,0,0.04,0.598,0.06269592476489028,0.159,0.04055383909133723,-0.008495284025999176,-0.9920372886855846,classic,0,0,0,none,0,0,0,0.5314479490566959,0.04055383909133723,0.021457487032474194,0
sensor,1768475109117,846.051697266572,0,0.0209503173828125,-0.049835205078125,-1.0234527587890625,0.0209503173828125,-0.049835205078125,-1.0234527587890625,-0.02605397067964077,-0.09282900393009186,-0.003925233148038387,10.0073286,10.0005012,2.446604021074448,355.46316465423797,1003.2883840743452,3.085699445226587,,0,0.518,0.279,0.6499372647427855,0,0.042911072890089996,-0.007068045734124696,-0.9916253899770289,classic,0,0,0,none,0,0,0,0.48706525767020104,0.042911072890089996,0.057946354168471034,0
sensor,1768475111149,849.6981978105343,0,0.06463623046875,0.0464935302734375,-0.9626922607421875,0.06463623046875,0.0464935302734375,-0.9626922607421875,0.0057127466425299644,0.09983711689710617,0.007231547497212887,10.0073612,10.0004970,2.420181393577309,354.52140120536757,1003.4649434033781,3.137964270714424,,0,0.156,0.518,0.2314540059347181,0.123,0.04417977477817076,-0.004916818364312518,-0.9916993685430704,classic,0,0,0,none,0,0,0,0.4323486905893468,0.04417977477817076,0.06278715266020557,0
sensor,1768475112150,854.2672556102237,0,0.0284423828125,-0.2220916748046875,-0.9507904052734375,0.0284423828125,-0.2220916748046875,-0.9507904052734375,0.04240897670388222,0.13717356324195862,0.008913067169487476,10.0074022,10.0004946,2.4050356880756465,353.1834426223954,1003.8410623399541,3.169834963766665,,0,0.199,0.5160000000000001,0.2783216783216783,0.08,0.043874598370199115,-0.008822646636495327,-0.9929262974331732,classic,0,0,0,none,0,0,0,1.6307830303042101,0.043874598370199115,0.21903384191573544,0
sensor,1768475114137,858.3212141025188,0,0.0251007080078125,0.0181121826171875,-0.9928131103515625,0.0251007080078125,0.0181121826171875,-0.9928131103515625,0.000943025341257453,-0.03206792101264,0.007722634356468916,10.0074372,10.0004843,2.3745218531968386,352.35347951968873,1003.7175334393978,3.167146597010198,,0,0.119,0.5970000000000001,0.16620111731843573,0.08,0.048960034891626605,-0.002811382074751163,-0.9932174551377729,classic,0,0,0,none,0,0,0,0.527612745993518,0.048960034891626605,0.03189631401239263,0
sensor,1768475115213,861.6881275918475,0,0.0885772705078125,-0.0704498291015625,-0.9918975830078125,0.0885772705078125,-0.0704498291015625,-0.9918975830078125,0.061162956058979034,0.19235506653785706,0.014659370295703411,10.0074675,10.0004833,2.3661315776463985,352.28045730042345,1003.7196787176654,3.1858275713751567,,0,0.279,0.47800000000000004,0.368560105680317,0.04,0.051363723902871916,-0.013210725711414953,-0.9913428343516862,classic,0,0,0,none,0,0,0,2.241693341812147,0.051363723902871916,0.06861805460032706,0
sensor,1768475117125,866.3575375135404,0,0.0650177001953125,0.0033721923828125,-0.96527099609375,0.0650177001953125,0.0033721923828125,-0.96527099609375,0.005648830905556679,-0.028846295550465584,0.004997954238206148,10.0075091,10.0004777,2.352503220896094,355.01756525148625,1004.2519995132461,3.238269127858659,,0,0.16,0.478,0.2507836990595611,0.159,0.05172599603059159,0.0011623427382755802,-0.9925011711194153,classic,0,0,0,none,0,0,0,0.7756690095085528,0.05172599603059159,0.030534166301319835,0
sensor,1768475119123,870.8854853690907,0,0.0506591796875,0.0092926025390625,-0.9519805908203125,0.0506591796875,0.0092926025390625,-0.9519805908203125,-0.012290754355490208,0.12118448317050934,0.030461769551038742,10.0075489,10.0004689,2.3375818858804984,348.7635531154354,1004.1084237713367,3.265441059928233,,0,0.08,0.7170000000000001,0.10037641154328733,0,0.04303749959023316,-0.0016257783091986524,-0.9925151098106135,classic,0,0,0,none,0,0,0,0.796759587317036,0.04303749959023316,0.04287993939387027,0
sensor,1768475121117,876.574874746762,0,0.012664794921875,0.15362548828125,-1.00408935546875,0.012664794921875,0.15362548828125,-1.00408935546875,0.0019206717843189836,-0.030908381566405296,0.11738601326942444,10.0075969,10.0004510,2.3417976133955047,343.62040743841266,1004.3450981806964,3.1894246585285395,,0,0.119,0.686,0.14782608695652172,0,0.04000352273712998,-0.0031047361012791356,-0.9911698320774229,classic,0,0,0,none,0,0,0,1.3258953623997343,0.04000352273712998,0.16042254801769815,0
sensor,1768475123141,881.1586041704766,0,-0.0254974365234375,-0.0396575927734375,-1.02679443359375,-0.0254974365234375,-0.0396575927734375,-1.02679443359375,0.02971714921295643,0.006179066374897957,0.03586772084236145,10.0076340,10.0004326,2.3562905093286752,337.446601389959,1004.3553547384217,3.224178811675838,,0,0.079,0.7170000000000001,0.0992462311557789,0,0.03290177052435985,-0.010988496374885418,-0.9923173263211228,classic,0,0,0,none,0,0,0,2.0987289485965706,0.03290177052435985,0.07399780576959628,0
sensor,1768475125133,886.090223949651,0,0.0546417236328125,-0.045806884765625,-0.975494384765625,0.0546417236328125,-0.045806884765625,-0.975494384765625,0.015988022089004517,0.06717371195554733,0.007151119876652956,10.0076741,10.0004134,2.371269919534053,333.6906123736561,1004.3966811541468,3.27388625474025,,0,0.318,0.399,0.44351464435146437,0.08,0.03501050315928658,0.002835636654012693,-0.9916985309540912,classic,0,0,0,none,0,0,0,0.831348759182053,0.03501050315928658,0.05517628269650849,0
sensor,1768475127125,891.1391469030665,0,0.062469482421875,0.026611328125,-0.9355316162109375,0.062469482421875,0.026611328125,-0.9355316162109375,0.006338057108223438,-0.0224981177598238,0.022433670237660408,10.0077137,10.0003909,2.3744032470680114,326.1463382646156,1004.2800625413656,3.363493095727894,,0,0.08,0.677,0.10568031704095113,0.04,0.0381639092166784,0.000836510882782304,-0.9929241313523928,classic,0,0,0,none,0,0,0,0.7208723148776607,0.0381639092166784,0.06778522242977533,0
sensor,1768475129119,896.9683546779697,0,0.074371337890625,0.06134033203125,-0.9747467041015625,0.074371337890625,0.06134033203125,-0.9747467041015625,-0.02184750884771347,-0.12603755295276642,0.01630387268960476,10.0077537,10.0003565,2.3981819673177696,323.48668604898614,1004.0347023308277,3.31852683883112,,0,0.119,0.558,0.17577548005908417,0.12,0.04087605829354065,-0.007593942324362479,-0.9930306910952954,classic,0,0,0,none,0,0,0,0.6984084149547642,0.04087605829354065,0.07918789411448707,0
sensor,1768475131116,901.8036295622289,0,0.0662841796875,-0.09930419921875,-1.0055389404296875,0.0662841796875,-0.09930419921875,-1.0055389404296875,-0.010814830660820007,-0.006755374372005463,0.0001715075777610764,10.0077880,10.0003294,2.4170991697538495,326.02633291555094,1004.2947418931872,3.3062465052707495,,0,0.079,0.678,0.10435931307793923,0.04,0.03965611377960798,0.0032850343652279343,-0.992054537693628,classic,0,0,0,none,0,0,0,0.7465923563221414,0.03965611377960798,0.10737993340573943,0
sensor,1768475132105,904.8437010886769,0,0.088775634765625,0.072357177734375,-0.9803924560546875,0.088775634765625,0.072357177734375,-0.9803924560546875,0.0009813748765736818,-0.10308270901441574,0.03218909353017807,10.0078119,10.0003159,2.458449189735164,322.50835888806984,1004.086324476637,3.3354315227839164,,0,0.279,0.517,0.35050251256281406,0,0.0427168025154499,-0.0055788463162528435,-0.9937684415862004,classic,0,0,0,none,0,0,0,0.9274489873849951,0.0427168025154499,0.09197136902808413,0
sensor,1768475134137,910.1091234307239,0,0.051849365234375,-0.284423828125,-1.003326416015625,0.051849365234375,-0.284423828125,-1.003326416015625,-0.014021276496350765,-0.04266756772994995,-0.0091732582077384,10.0078523,10.0002907,2.503379890091311,322.6271273463225,1003.627021166496,3.413410442611916,,0,0.08,0.6000000000000001,0.11764705882352941,0.117,0.03997139487986814,-0.006385816550777324,-0.9946129419131428,classic,0,0,0,none,0,0,0,2.1921243272504545,0.03997139487986814,0.27982712756901706,0
sensor,1768475136129,914.3108165476755,0,0.0668182373046875,0.07611083984375,-0.98681640625,0.0668182373046875,0.07611083984375,-0.98681640625,-0.0037116475868970156,-0.010869159363210201,0.0010988202411681414,10.0078820,10.0002670,2.5102764417299688,321.02870213006133,1003.9892345042899,3.512333755987857,,0,0.08,0.6380000000000001,0.11142061281337046,0.079,0.04010551674552871,0.0021288900686710576,-0.9953325916711808,classic,0,0,0,none,0,0,0,0.5315654538391833,0.04010551674552871,0.07951409051203918,0
sensor,1768475137125,917.6399499589484,0,0.072418212890625,-0.0548095703125,-1.0057220458984375,0.072418212890625,-0.0548095703125,-1.0057220458984375,0.039559926837682724,0.275113046169281,0.014072675257921219,10.0078992,10.0002422,2.555018872851813,320.9182883358765,1003.4232016736642,3.4968821184987324,,0,0.119,0.518,0.1868131868131868,0.16,0.03976493564593435,-0.010558058801929398,-0.9958755283438444,classic,0,0,0,none,0,0,0,2.097889401875263,0.03976493564593435,0.05615012230786058,0
sensor,1768475139117,922.1405066330872,0,-0.04022216796875,-0.017547607421875,-1.01141357421875,-0.04022216796875,-0.017547607421875,-1.01141357421875,-0.008680840022861958,-0.0779280886054039,0.00034434671397320926,10.0079299,10.0002154,2.5946707324988654,319.1266100608792,1003.4291057065129,3.456863773397782,,0,0.478,0.19800000000000006,0.7071005917159763,0.12,0.03870244494966781,-0.000704879220824613,-0.9938380935356129,classic,0,0,0,none,0,0,0,0.7609855287215785,0.03870244494966781,0.08300844108706426,0
sensor,1768475141116,926.4736236803109,0,0.04168701171875,0.10174560546875,-0.96368408203125,0.04168701171875,0.10174560546875,-0.96368408203125,-0.0012189288390800357,-0.07107950001955032,0.024119718000292778,10.0079595,10.0001897,2.588029335848208,319.0309754472471,1003.5495400382206,3.44592919815591,,0,0.168,0.43,0.28093645484949836,0.199,0.027428289903422286,-0.005009592825657585,-0.9931410170997487,classic,0,0,0,none,0,0,0,0.9097494706542821,0.027428289903422286,0.11221993062639145,0
sensor,1768475143141,931.4015711949113,0,-0.022735595703125,-0.2705535888671875,-1.0152130126953125,-0.022735595703125,-0.2705535888671875,-1.0152130126953125,0.005073588341474533,-0.01263856329023838,0.011592473834753036,10.0079920,10.0001591,2.5842165019275054,318.01042226558405,1003.8886552937329,3.392436182534641,,0,0,0.797,0,0,0.024771006919436817,-0.007835517002274426,-0.9948418309096758,classic,0,0,0,none,0,0,0,2.67076519750783,0.024771006919436817,0.26910032909870507,0
sensor,1768475145133,935.1527300378249,0,0.063385009765625,0.08111572265625,-0.9624176025390625,0.063385009765625,0.08111572265625,-0.9624176025390625,-0.004477306269109249,-0.08762519061565399,0.01979234628379345,10.0080158,10.0001348,2.5632489353191366,315.7432893808601,1003.3238787101582,3.3409256011512904,,0,0,0.757,0,0.04,0.024004809803621702,0.0019167467162729446,-0.9932726915222754,classic,0,0,0,none,0,0,0,0.6859309968053686,0.024004809803621702,0.09414738532498734,0
sensor,1768475147124,939.1692666477521,0,0.023223876953125,-0.048309326171875,-1.019805908203125,0.023223876953125,-0.048309326171875,-1.019805908203125,-0.002906573936343193,-0.0794929638504982,0.01582450233399868,10.0080428,10.0001105,2.504995810130982,317.88717566914596,1003.0727132894099,3.3862335956884686,,0,0.159,0.625,0.20280612244897958,0,0.02124015806337711,0.0008821587904801623,-0.9939037478564793,classic,0,0,0,none,0,0,0,0.7755533890659094,0.02124015806337711,0.05590920758695464,0
sensor,1768475149117,943.8881339016015,0,0.028656005859375,0.0478057861328125,-0.982757568359375,0.028656005859375,0.0478057861328125,-0.982757568359375,0.0006143912323750556,-0.09757715463638306,0.02509762905538082,10.0080707,10.0000779,2.4493592009316227,314.2097731935028,1002.5928782541305,3.36251778352418,,0,0,0.678,0,0.119,0.026971425182431272,-0.006800977114556666,-0.9957200367366893,classic,0,0,0,none,0,0,0,0.9602391557582046,0.026971425182431272,0.056431619276739044,0
sensor,1768475151109,948.7312726699048,0,0.0203704833984375,-0.0131683349609375,-0.9678497314453125,0.0203704833984375,-0.0131683349609375,-0.9678497314453125,-0.028606876730918884,-0.0792335718870163,0.004002997186034918,10.0080986,10.0000440,2.425390433722477,312.2844134349008,1003.1007855711505,3.3951958001277647,,0,0.16,0.517,0.2363367799113737,0.119,0.028415110270293056,0.0049502947291610155,-0.9954233374100043,classic,0,0,0,none,0,0,0,0.528117044571531,0.028415110270293056,0.034130992257172504,0
sensor,1768475153140,952.4480880947965,0,0.0465850830078125,0.01141357421875,-0.97857666015625,0.0465850830078125,0.01141357421875,-0.97857666015625,0.00666349520906806,0.11620437353849411,0.0038107172586023808,10.0081181,10.0000164,2.3992199723311423,308.0759960775802,1003.1757212514058,3.3547118031427203,,0,0.199,0.558,0.2628797886393659,0.04,0.02477379628719643,0.0022330163561372807,-0.993966420871213,classic,0,0,0,none,0,0,0,0.46270296994296617,0.02477379628719643,0.028370554584047154,0
sensor,1768475154136,955.6273899998521,0,-0.06866455078125,-0.2026214599609375,-0.998809814453125,-0.06866455078125,-0.2026214599609375,-0.998809814453125,-0.04393070563673973,-0.23913854360580444,0.0027566379867494106,10.0081371,9.9999947,2.4135535116596856,309.6787348823776,1002.8520004153252,3.296295097415939,,0,0.279,0.518,0.35006273525721454,0,0.02797072901149865,0.0022775587306797275,-0.9935896742904408,classic,0,0,0,none,0,0,0,0.963406265671612,0.02797072901149865,0.22774240800442735,0
sensor,1768475156128,959.5902748010467,0,-0.0162353515625,0.027069091796875,-0.9945068359375,-0.0162353515625,0.027069091796875,-0.9945068359375,0.0046573360450565815,-0.016461264342069626,0.009562079794704914,10.0081595,9.9999666,2.4245182395423215,308.9346492472414,1003.6297803260386,3.2869623858490384,,0,0.239,0.558,0.29987452948557086,0,0.026855287705994546,0.003327710010421554,-0.995853794956201,classic,0,0,0,none,0,0,0,0.570648848053278,0.026855287705994546,0.04946388881145352,0
sensor,1768475158120,963.7426962277185,0,0.085693359375,0.15997314453125,-0.9635162353515625,0.085693359375,0.15997314453125,-0.9635162353515625,0.010972223244607449,0.021401429548859596,-0.005694637540727854,10.0081844,9.9999384,2.3980235620027224,309.880968974074,1002.9034593431279,3.253834698532395,,0,0.08,0.677,0.10568031704095113,0.04,0.017896180560620555,0.002531462667144369,-0.9950423979572376,classic,0,0,0,none,0,0,0,1.4398802928873793,0.017896180560620555,0.17516939121986908,0
sensor,1768475159116,966.8527118727155,0,0.0057373046875,0.020904541015625,-0.9682464599609375,0.0057373046875,0.020904541015625,-0.9682464599609375,-0.005437109619379044,-0.05170820280909538,-0.004591555800288916,10.0082018,9.9999161,2.393685627171936,309.2452855010222,1003.4201731188223,3.2451092429620485,,0,0.08,0.677,0.10568031704095113,0.04,0.01805414281149431,0.0068809128537239425,-0.9936978708606458,classic,0,0,0,none,0,0,0,0.4537284235200145,0.01805414281149431,0.03172030243245065,0
sensor,1768475161111,971.2575255475361,0,-0.00128173828125,0.0470428466796875,-0.9922332763671875,-0.00128173828125,0.0470428466796875,-0.9922332763671875,-0.010047574527561665,-0.011464642360806465,-0.019714582711458206,10.0082282,9.9998861,2.360451205904923,310.1526433980491,1003.9645552430302,3.259356645308669,,0,0.119,0.678,0.14930991217063988,0,0.016314023912350248,0.005121292207139346,-0.9931179388964656,classic,0,0,0,none,0,0,0,1.0526947615798645,0.016314023912350248,0.04570168960305724,0
sensor,1768475162111,974.9560722047015,0,-0.03741455078125,0.0294189453125,-0.9848175048828125,-0.03741455078125,0.0294189453125,-0.9848175048828125,-0.0184695553034544,-0.1301468163728714,0.0008396946941502392,10.0082502,9.9998608,2.3829286231716904,310.9309485547193,1003.4988592006266,3.203558368054755,,0,0.119,0.681,0.14875,0,0.015908024261223116,0.007168966195467987,-0.992905562394434,classic,0,0,0,none,0,0,0,0.5554444831393005,0.015908024261223116,0.05863505779356165,0
sensor,1768475164136,979.0031724015215,0,0.0074920654296875,-0.019561767578125,-0.9015350341796875,0.0074920654296875,-0.019561767578125,-0.9015350341796875,-0.012725116685032845,0.11135262250900269,-0.022492792457342148,10.0082746,9.9998334,2.383415816995826,310.39762763759336,1003.7103041773662,3.239018755484199,,0,0.159,0.637,0.19974874371859297,0,0.014348763402495636,0.0060886143121562175,-0.9915799511013131,classic,0,0,0,none,0,0,0,0.8243517998260053,0.014348763402495636,0.09434955913375893,0
sensor,1768475165132,982.094766945235,0,0.13751220703125,-0.0505523681640625,-0.98431396484375,0.13751220703125,-0.0505523681640625,-0.98431396484375,-0.02238919585943222,-0.07195408642292023,-0.004685831721872091,10.0082959,9.9998152,2.4123560459443403,314.40343302758805,1003.2475526826456,3.2201487592901588,,0,0.16,0.478,0.2507836990595611,0.159,0.021967079045208858,0.006754440215174083,-0.9918309327692996,classic,0,0,0,none,0,0,0,0.8369269622410046,0.021967079045208858,0.12984384642193872,0
sensor,1768475167124,987.1593101766364,0,0.095367431640625,-0.0165252685546875,-1.0214080810546875,0.095367431640625,-0.0165252685546875,-1.0214080810546875,0.007939682342112064,-0.11644192039966583,0.016944095492362976,10.0083285,9.9997829,2.444443842484862,314.5760730627098,1003.8571237800643,3.173856135305774,,0,0.08,0.7130000000000001,0.1008827238335435,0,0.02478608329741173,0.003011854180997438,-0.9906125807164368,classic,0,0,0,none,0,0,0,0.6669704566073125,0.02478608329741173,0.07984599668806104,0
